{"resourceType":"Bundle","id":"r4-notification-multi-resource","meta":{"profile":["http://hl7.org/fhir/uv/subscriptions-backport/StructureDefinition/backport-subscription-notification-r4"]},"type":"history","timestamp":"2020-05-29T11:44:13.1882432-05:00","entry":[{"fullUrl":"urn:uuid:7bd91d26-c951-4520-9ac6-67f41bfbe897","resource":{"resourceType":"Parameters","id":"7bd91d26-c951-4520-9ac6-67f41bfbe897","meta":{"profile":["http://hl7.org/fhir/uv/subscriptions-backport/StructureDefinition/backport-subscription-status-r4"]},"parameter":[{"name":"subscription","valueReference":{"reference":"https://example.org/fhir/Subscription/admission"}},{"name":"topic","valueCanonical":"http://hl7.org/SubscriptionTopic/admission"},{"name":"status","valueCode":"active"},{"name":"type","valueCode":"event-notification"},{"name":"events-since-subscription-start","valueString":"2"},{"name":"notification-event","part":[{"name":"event-number","valueString":"2"},{"name":"timestamp","valueInstant":"2020-05-29T11:44:13.1882432-05:00"},{"name":"focus","valueReference":{"reference":"https://example.org/fhir/Encounter/86009987-eabe-42bf-8c02-b112b18cb616"}},{"name":"additional-context","valueReference":{"reference":"https://example.org/fhir/Patient/1599eb66-431a-447c-a3de-6897fe9ae9a1"}}]}]},"request":{"method":"GET","url":"https://example.org/fhir/Subscription/admission/$status"},"response":{"status":"200"}},{"fullUrl":"https://example.org/fhir/Encounter/86009987-eabe-42bf-8c02-b112b18cb616","resource":{"resourceType":"Encounter","id":"86009987-eabe-42bf-8c02-b112b18cb616","text":{"status":"generated","div":"<div xmlns=\"http://www.w3.org/1999/xhtml\"><p><b>Generated Narrative: Encounter</b><a name=\"86009987-eabe-42bf-8c02-b112b18cb616\"> </a></p><div style=\"display: inline-block; background-color: #d9e0e7; padding: 6px; margin: 4px; border: 1px solid #8da1b4; border-radius: 5px; line-height: 60%\"><p style=\"margin-bottom: 0px\">Resource Encounter &quot;86009987-eabe-42bf-8c02-b112b18cb616&quot; </p></div><p><b>status</b>: in-progress</p><p><b>class</b>: virtual (Details: http://terminology.hl7.org/CodeSystem/v3-ActCode code VR = 'virtual', stated as 'null')</p><p><b>subject</b>: <a href=\"#Patient_1599eb66-431a-447c-a3de-6897fe9ae9a1\">See above (https://example.org/fhir/Patient/1599eb66-431a-447c-a3de-6897fe9ae9a1: Example Patient)</a></p></div>"},"status":"in-progress","class":{"system":"http://terminology.hl7.org/CodeSystem/v3-ActCode","code":"VR"},"subject":{"reference":"https://example.org/fhir/Patient/1599eb66-431a-447c-a3de-6897fe9ae9a1","display":"Example Patient"}},"request":{"method":"POST","url":"Encounter"},"response":{"status":"201"}},{"fullUrl":"https://example.org/fhir/Patient/1599eb66-431a-447c-a3de-6897fe9ae9a1","resource":{"resourceType":"Patient","id":"1599eb66-431a-447c-a3de-6897fe9ae9a1","text":{"status":"generated","div":"<div xmlns=\"http://www.w3.org/1999/xhtml\"><p><b>Generated Narrative: Patient</b><a name=\"1599eb66-431a-447c-a3de-6897fe9ae9a1\"> </a></p><div style=\"display: inline-block; background-color: #d9e0e7; padding: 6px; margin: 4px; border: 1px solid #8da1b4; border-radius: 5px; line-height: 60%\"><p style=\"margin-bottom: 0px\">Resource Patient &quot;1599eb66-431a-447c-a3de-6897fe9ae9a1&quot; </p></div><p><b>active</b>: true</p><p><b>name</b>: Example Patient</p></div>"},"active":true,"name":[{"use":"usual","text":"Example Patient","family":"Patient","given":["Example"]}]},"request":{"method":"GET","url":"Patient/1599eb66-431a-447c-a3de-6897fe9ae9a1"},"response":{"status":"200"}}]}