{"resourceType":"Bundle","id":"mii-exa-molgen-bundle-fam-his-breast-ovar-can","type":"transaction","timestamp":"2022-11-04T13:47:00+01:00","entry":[{"fullUrl":"https://www.medizininformatik-initiative.de/fhir/mii-exa-molgen-patient-brca1","resource":{"resourceType":"Patient","id":"mii-exa-molgen-patient-brca1","meta":{"profile":["https://www.medizininformatik-initiative.de/fhir/core/modul-person/StructureDefinition/Patient"]},"identifier":[{"use":"usual","type":{"coding":[{"system":"http://terminology.hl7.org/CodeSystem/v2-0203","code":"MR"}]},"system":"https://www.charite.de/fhir/sid/patienten","value":"9166147031","assigner":{"identifier":{"system":"https://www.medizininformatik-initiative.de/fhir/core/CodeSystem/core-location-identifier","value":"Charité"},"display":"Charité - Universitätsmedizin Berlin"}},{"use":"official","type":{"coding":[{"system":"http://fhir.de/CodeSystem/identifier-type-de-basis","code":"GKV"}]},"system":"http://fhir.de/sid/gkv/kvid-10","value":"Z977188448","assigner":{"identifier":{"use":"official","system":"http://fhir.de/sid/arge-ik/iknr","value":"109519005"}}}],"name":[{"use":"official","family":"Schmidt-Huber","_family":{"extension":[{"url":"http://hl7.org/fhir/StructureDefinition/humanname-own-name","valueString":"Schmidt"}]},"given":["Elisa"]}],"gender":"female","birthDate":"1973-03-12","deceasedBoolean":false,"address":[{"type":"both","line":["Anna-Louisa-Karsch Str. 2"],"city":"Berlin","state":"DE-BE","postalCode":"10178","country":"DE"}]},"request":{"method":"PUT","url":"Patient/mii-exa-molgen-patient-brca1"}},{"fullUrl":"https://www.medizininformatik-initiative.de/fhir/mii-exa-molgen-molekulargenetischer-befundbericht-trurisk-panel","resource":{"resourceType":"DiagnosticReport","id":"mii-exa-molgen-molekulargenetischer-befundbericht-trurisk-panel","meta":{"profile":["https://www.medizininformatik-initiative.de/fhir/ext/modul-molgen/StructureDefinition/molekulargenetischer-befundbericht","http://hl7.org/fhir/uv/genomics-reporting/StructureDefinition/genomics-report"]},"extension":[{"url":"http://hl7.org/fhir/uv/genomics-reporting/StructureDefinition/genomics-artifact","valueRelatedArtifact":{"type":"citation","citation":"Plon SE, Eccles DM, Easton D, Foulkes WD, Genuardi M, Greenblatt MS, Hogervorst FB, Hoogerbrugge N, Spurdle AB, Tavtigian SV; IARC Unclassified Genetic Variants Working Group. Sequence variant classification and reporting: recommendations for improving the interpretation of cancer susceptibility genetic test results. Hum Mutat. 2008 Nov;29(11):1282-91. doi: 10.1002/humu.20880. PMID: 18951446; PMCID: PMC3075918.","url":"https://doi.org/10.1002/humu.20880"}},{"url":"http://hl7.org/fhir/uv/genomics-reporting/StructureDefinition/genomics-artifact","valueRelatedArtifact":{"type":"citation","citation":"Rhiem K, Auber B, Briest S, Dikow N, Ditsch N, Dragicevic N, Grill S, Hahnen E, Horvath J, Jaeger B, Kast K, Kiechle M, Leinert E, Morlot S, Püsken M, Schäfer D, Schott S, Schroeder C, Siebers-Renelt U, Solbach C, Weber-Lassalle N, Witzel I, Zeder-Göß C, Schmutzler RK. Consensus Recommendations of the German Consortium for Hereditary Breast and Ovarian Cancer. Breast Care (Basel). 2022 Apr;17(2):199-207. doi: 10.1159/000516376. Epub 2021 Jul 19. PMID: 35702495; PMCID: PMC9149395.","url":"https://doi.org/10.1159%2F000516376"}},{"url":"http://hl7.org/fhir/uv/genomics-reporting/StructureDefinition/recommended-action","valueReference":{"reference":"Task/mii-exa-molgen-folgemassnahme-brca1"}},{"url":"http://hl7.org/fhir/uv/genomics-reporting/StructureDefinition/genomics-risk-assessment","valueReference":{"reference":"RiskAssessment/mii-exa-molgen-prs-brca1"}}],"basedOn":[{"reference":"ServiceRequest/mii-exa-molgen-anforderung-trurisk-panel"}],"status":"final","category":[{"coding":[{"system":"http://terminology.hl7.org/CodeSystem/v2-0074","code":"GE","display":"Genetics"}]}],"code":{"coding":[{"system":"http://loinc.org","code":"51969-4","display":"Genetic analysis report"}]},"subject":{"reference":"Patient/mii-exa-molgen-patient-brca1"},"performer":[{"reference":"Practitioner/mii-exa-molgen-practitioner-lab"}],"specimen":[{"reference":"Specimen/mii-exa-molgen-specimen-brca1"}],"result":[{"reference":"Observation/mii-exa-molgen-ergebnis-zusammenfassung-trurisk-panel"},{"reference":"Observation/mii-exa-molgen-variante-brca1"},{"reference":"Observation/mii-exa-molgen-diagnostische-implikation-brca1"},{"reference":"Observation/mii-exa-molgen-untersuchte-region-true-risk-panel-v3-ATM"},{"reference":"Observation/mii-exa-molgen-untersuchte-region-true-risk-panel-v3-BRCA1"},{"reference":"Observation/mii-exa-molgen-untersuchte-region-true-risk-panel-v3-BARD1"},{"reference":"Observation/mii-exa-molgen-untersuchte-region-true-risk-panel-v3-BRCA2"},{"reference":"Observation/mii-exa-molgen-untersuchte-region-true-risk-panel-v3-BRIP1"},{"reference":"Observation/mii-exa-molgen-untersuchte-region-true-risk-panel-v3-CDH1"},{"reference":"Observation/mii-exa-molgen-untersuchte-region-true-risk-panel-v3-CHECK2"},{"reference":"Observation/mii-exa-molgen-untersuchte-region-true-risk-panel-v3-MLH1"},{"reference":"Observation/mii-exa-molgen-untersuchte-region-true-risk-panel-v3-MSH2"},{"reference":"Observation/mii-exa-molgen-untersuchte-region-true-risk-panel-v3-MSH6"},{"reference":"Observation/mii-exa-molgen-untersuchte-region-true-risk-panel-v3-PALB2"},{"reference":"Observation/mii-exa-molgen-untersuchte-region-true-risk-panel-v3-PMS2"},{"reference":"Observation/mii-exa-molgen-untersuchte-region-true-risk-panel-v3-PTEN"},{"reference":"Observation/mii-exa-molgen-untersuchte-region-true-risk-panel-v3-RAD51C"},{"reference":"Observation/mii-exa-molgen-untersuchte-region-true-risk-panel-v3-RAD51D"},{"reference":"Observation/mii-exa-molgen-untersuchte-region-true-risk-panel-v3-TP53"}],"conclusion":"Nachweis heterozygoter Sequenzveränderung, die zum Funktionsverlust führt."},"request":{"method":"PUT","url":"DiagnosticReport/mii-exa-molgen-molekulargenetischer-befundbericht-trurisk-panel"}},{"fullUrl":"https://www.medizininformatik-initiative.de/fhir/mii-exa-molgen-folgemassnahme-brca1","resource":{"resourceType":"Task","id":"mii-exa-molgen-folgemassnahme-brca1","meta":{"profile":["https://www.medizininformatik-initiative.de/fhir/ext/modul-molgen/StructureDefinition/empfohlene-folgemassnahme","http://hl7.org/fhir/uv/genomics-reporting/StructureDefinition/followup-recommendation"]},"basedOn":[{"reference":"ServiceRequest/mii-exa-molgen-anforderung-trurisk-panel"}],"status":"requested","intent":"proposal","code":{"coding":[{"system":"http://loinc.org","code":"LA14020-4","display":"Genetic counseling recommended"}]},"description":"Eine genetische Beratung hinsichtlich einer gezielten Testung leiblicher Familienmitglieder wird empfohlen.","for":{"reference":"Patient/mii-exa-molgen-patient-brca1"}},"request":{"method":"PUT","url":"Task/mii-exa-molgen-folgemassnahme-brca1"}},{"fullUrl":"https://www.medizininformatik-initiative.de/fhir/mii-exa-molgen-prs-brca1","resource":{"resourceType":"RiskAssessment","id":"mii-exa-molgen-prs-brca1","meta":{"profile":["https://www.medizininformatik-initiative.de/fhir/ext/modul-molgen/StructureDefinition/polygener-risiko-score"]},"status":"final","subject":{"reference":"Patient/mii-exa-molgen-patient-2"},"occurrenceDateTime":"2022-11-01","basis":[{"reference":"Observation/mii-exa-molgen-variante-brca1"}],"prediction":[{"extension":[{"url":"https://www.medizininformatik-initiative.de/fhir/ext/modul-molgen/StructureDefinition/risk-assessment-einflussfaktor","valueCodeableConcept":{"coding":[{"system":"http://snomed.info/sct","code":"414152003","display":"European (ethnic group)"}],"text":"Der verwendete Polygene Risikoscore wurde bisher nur für die europäische Bevölkerung bei Brustkrebs validiert und kann daher noch nicht auf andere Ethnizitäten und andere Tumor-Erkrankungen übertragen werden."}}],"outcome":{"coding":[{"system":"http://snomed.info/sct","code":"718220008","display":"Hereditary breast and ovarian cancer syndrome (disorder)"}]},"qualitativeRisk":{"coding":[{"system":"http://terminology.hl7.org/CodeSystem/risk-probability","code":"high","display":"High likelihood"}]}}]},"request":{"method":"PUT","url":"RiskAssessment/mii-exa-molgen-prs-brca1"}},{"fullUrl":"https://www.medizininformatik-initiative.de/fhir/mii-exa-molgen-anforderung-trurisk-panel","resource":{"resourceType":"ServiceRequest","id":"mii-exa-molgen-anforderung-trurisk-panel","meta":{"profile":["https://www.medizininformatik-initiative.de/fhir/ext/modul-molgen/StructureDefinition/anforderung-genetischer-test"]},"identifier":[{"system":"https://www.charite.de/fhir/auftragsnummern","value":"gen_test_03"}],"status":"active","intent":"order","category":[{"coding":[{"system":"http://snomed.info/sct","code":"108252007","display":"Laboratory procedure (procedure)"}]}],"code":{"coding":[{"system":"http://snomed.info/sct","code":"405825005","display":"Molecular genetic test (procedure)"}],"text":"Panelanalyse TruRisk®-V3 mit NGS basierter CNV-Analyse Bestimmung des Polygenen Risikoscores (PRS) für Brustkrebs"},"subject":{"reference":"Patient/mii-exa-molgen-patient-brca1"},"authoredOn":"2022-11-01","requester":{"reference":"Practitioner/mii-exa-molgen-practitioner-physician"},"reasonCode":[{"coding":[{"system":"http://snomed.info/sct","code":"429740004","display":"Family history of malignant neoplasm of breast (situation)"}]},{"coding":[{"system":"http://snomed.info/sct","code":"430705002","display":"Family history of malignant neoplasm of ovary (situation)"}]},{"coding":[{"system":"http://www.orpha.net","code":"ORPHA:145","display":"Hereditary breast and ovarian cancer syndrome"}]},{"coding":[{"system":"http://www.omim.org","code":"604370","display":"BREAST-OVARIAN CANCER, FAMILIAL, SUSCEPTIBILITY TO, 1; BROVCA1"}]}],"specimen":[{"reference":"Specimen/mii-exa-molgen-specimen-brca1"}]},"request":{"method":"PUT","url":"ServiceRequest/mii-exa-molgen-anforderung-trurisk-panel"}},{"fullUrl":"https://www.medizininformatik-initiative.de/fhir/mii-exa-molgen-practitioner-lab","resource":{"resourceType":"Practitioner","id":"mii-exa-molgen-practitioner-lab","active":true,"name":[{"use":"official","text":"Dr. Daniel Schmidt","family":"Schmidt","given":["Daniel"],"prefix":["Dr."]}]},"request":{"method":"PUT","url":"Practitioner/mii-exa-molgen-practitioner-lab"}},{"fullUrl":"https://www.medizininformatik-initiative.de/fhir/mii-exa-molgen-practitioner-physician","resource":{"resourceType":"Practitioner","id":"mii-exa-molgen-practitioner-physician","active":true,"name":[{"use":"official","text":"Dr. Linda Rubens","family":"Rubens","given":["Linda"],"prefix":["Dr."]}]},"request":{"method":"PUT","url":"Practitioner/mii-exa-molgen-practitioner-physician"}},{"fullUrl":"https://www.medizininformatik-initiative.de/fhir/mii-exa-molgen-specimen-brca1","resource":{"resourceType":"Specimen","id":"mii-exa-molgen-specimen-brca1","meta":{"profile":["https://www.medizininformatik-initiative.de/fhir/ext/modul-biobank/StructureDefinition/SpecimenCore"]},"identifier":[{"system":"https://www.charite.de/fhir/sid/bioproben","value":"specimen_03"}],"status":"available","type":{"coding":[{"system":"http://snomed.info/sct","code":"127457009","display":"Tissue specimen from breast (specimen)"}]},"subject":{"reference":"Patient/mii-exa-molgen-patient-brca1"},"receivedTime":"2022-11-01","collection":{"collectedDateTime":"2022-11-01"}},"request":{"method":"PUT","url":"Specimen/mii-exa-molgen-specimen-brca1"}},{"fullUrl":"https://www.medizininformatik-initiative.de/fhir/mii-exa-molgen-device-sequencer-nextseq","resource":{"resourceType":"Device","id":"mii-exa-molgen-device-sequencer-nextseq","status":"active","manufacturer":"Illumina","deviceName":[{"name":"NextSeq","type":"manufacturer-name"}]},"request":{"method":"PUT","url":"Device/mii-exa-molgen-device-sequencer-nextseq"}},{"fullUrl":"https://www.medizininformatik-initiative.de/fhir/mii-exa-molgen-ergebnis-zusammenfassung-trurisk-panel","resource":{"resourceType":"Observation","id":"mii-exa-molgen-ergebnis-zusammenfassung-trurisk-panel","meta":{"profile":["https://www.medizininformatik-initiative.de/fhir/ext/modul-molgen/StructureDefinition/ergebnis-zusammenfassung","http://hl7.org/fhir/uv/genomics-reporting/StructureDefinition/overall-interpretation"]},"status":"final","category":[{"coding":[{"system":"http://terminology.hl7.org/CodeSystem/observation-category","code":"laboratory","display":"Laboratory"}]}],"code":{"coding":[{"system":"http://loinc.org","code":"51968-6"}]},"subject":{"reference":"Patient/mii-exa-molgen-patient-brca1"},"valueCodeableConcept":{"coding":[{"system":"http://loinc.org","code":"LA6576-8","display":"Positive"}]},"component":[{"code":{"coding":[{"system":"http://hl7.org/fhir/uv/genomics-reporting/CodeSystem/tbd-codes-cs","code":"conclusion-string"}]},"valueString":"Nachweis heterozygoter Sequenzveränderung, die zum Funktionsverlust führt"}]},"request":{"method":"PUT","url":"Observation/mii-exa-molgen-ergebnis-zusammenfassung-trurisk-panel"}},{"fullUrl":"https://www.medizininformatik-initiative.de/fhir/mii-exa-molgen-variante-brca1","resource":{"resourceType":"Observation","id":"mii-exa-molgen-variante-brca1","meta":{"profile":["https://www.medizininformatik-initiative.de/fhir/ext/modul-molgen/StructureDefinition/variante","http://hl7.org/fhir/uv/genomics-reporting/StructureDefinition/variant"]},"basedOn":[{"reference":"ServiceRequest/mii-exa-molgen-anforderung-trurisk-panel"}],"status":"final","category":[{"coding":[{"system":"http://terminology.hl7.org/CodeSystem/observation-category","code":"laboratory","display":"Laboratory"}]}],"code":{"coding":[{"system":"http://loinc.org","code":"69548-6","display":"Genetic variant assessment"}]},"subject":{"reference":"Patient/mii-exa-molgen-patient-brca1"},"valueCodeableConcept":{"coding":[{"system":"http://loinc.org","code":"LA9633-4","display":"Present"}]},"method":{"coding":[{"system":"http://loinc.org","code":"LA26398-0","display":"Sequencing"}]},"specimen":{"reference":"Specimen/mii-exa-molgen-specimen-brca1"},"device":{"reference":"Device/mii-exa-molgen-device-sequencer-nextseq"},"component":[{"code":{"coding":[{"system":"http://loinc.org","code":"48018-6","display":"Gene studied [ID]"}]},"valueCodeableConcept":{"coding":[{"system":"http://www.genenames.org/geneId","code":"HGNC:1100","display":"BRCA1"}]}},{"code":{"coding":[{"system":"http://loinc.org","code":"48001-2"}]},"valueCodeableConcept":{"coding":[{"system":"urn:oid:2.16.840.1.113883.6.335","code":"17q21.31"}]}},{"code":{"coding":[{"system":"http://loinc.org","code":"48004-6"}]},"valueCodeableConcept":{"coding":[{"system":"http://varnomen.hgvs.org","code":"NM_007294.3:c.5266dupC"}]}},{"code":{"coding":[{"system":"http://loinc.org","code":"51958-7"}]},"valueCodeableConcept":{"coding":[{"system":"http://www.ncbi.nlm.nih.gov/refseq","code":"NM_007294.3"}]}},{"code":{"coding":[{"system":"http://loinc.org","code":"48019-4"}]},"valueCodeableConcept":{"coding":[{"system":"http://sequenceontology.org","code":"SO:1000035","display":"duplication"}]}},{"code":{"coding":[{"system":"http://loinc.org","code":"82121-5"}]},"valueQuantity":{"value":50,"unit":"Abdeckung der Fragmente","system":"http://unitsofmeasure.org","code":"1"}},{"code":{"coding":[{"system":"http://loinc.org","code":"81252-9"}]},"valueCodeableConcept":{"coding":[{"system":"http://www.ncbi.nlm.nih.gov/projects/SNP","code":"rs80357906"}]}},{"code":{"coding":[{"system":"http://loinc.org","code":"48000-4"}]},"valueCodeableConcept":{"coding":[{"system":"http://loinc.org","code":"LA21270-6","display":"Chromosome 17"}]}},{"code":{"coding":[{"system":"http://loinc.org","code":"48005-3"}]},"valueCodeableConcept":{"coding":[{"system":"http://varnomen.hgvs.org","code":"p.Gln1756Profs"}]}},{"code":{"coding":[{"system":"http://loinc.org","code":"48006-1"}]},"valueCodeableConcept":{"coding":[{"system":"http://loinc.org","code":"LA6694-9","display":"Frameshift"}]}},{"code":{"coding":[{"system":"http://loinc.org","code":"87706-8"}]},"valueQuantity":{"value":95,"comparator":">","unit":"%","system":"http://unitsofmeasure.org","code":"%"}}]},"request":{"method":"PUT","url":"Observation/mii-exa-molgen-variante-brca1"}},{"fullUrl":"https://www.medizininformatik-initiative.de/fhir/mii-exa-molgen-diagnostische-implikation-brca1","resource":{"resourceType":"Observation","id":"mii-exa-molgen-diagnostische-implikation-brca1","meta":{"profile":["https://www.medizininformatik-initiative.de/fhir/ext/modul-molgen/StructureDefinition/diagnostische-implikation","http://hl7.org/fhir/uv/genomics-reporting/StructureDefinition/diagnostic-implication"]},"status":"final","category":[{"coding":[{"system":"http://terminology.hl7.org/CodeSystem/observation-category","code":"laboratory","display":"Laboratory"}]}],"code":{"coding":[{"system":"http://hl7.org/fhir/uv/genomics-reporting/CodeSystem/tbd-codes-cs","code":"diagnostic-implication","display":"Diagnostische Implikation"}]},"subject":{"reference":"Patient/mii-exa-molgen-patient-brca1"},"performer":[{"reference":"Practitioner/mii-exa-molgen-practitioner-lab"}],"derivedFrom":[{"reference":"Observation/mii-exa-molgen-variante-brca1"}],"component":[{"code":{"coding":[{"system":"http://hl7.org/fhir/uv/genomics-reporting/CodeSystem/tbd-codes-cs","code":"conclusion-string"}]},"valueString":"Nachweis heterozygoter Sequenzveränderung, die zum Funktionsverlust führt"},{"code":{"coding":[{"system":"http://loinc.org","code":"53037-8","display":"Genetic variation clinical significance [Imp]"}]},"valueCodeableConcept":{"coding":[{"system":"http://loinc.org","code":"LA6668-3","display":"Pathogenic"}]}},{"code":{"coding":[{"system":"http://hl7.org/fhir/uv/genomics-reporting/CodeSystem/tbd-codes-cs","code":"functional-effect"}]},"valueCodeableConcept":{"coding":[{"system":"http://sequenceontology.org","code":"SO:0002054","display":"loss_of_function_variant"}],"text":"Funktionsverlust des Genprodukts"}},{"code":{"coding":[{"system":"http://loinc.org","code":"81259-4"}]},"valueCodeableConcept":{"coding":[{"system":"http://human-phenotype-ontology.org","code":"HP:0003002","display":"Breast carcinoma"},{"system":"http://human-phenotype-ontology.org","code":"HP:0100615","display":"Ovarian neoplasm"}]}},{"code":{"coding":[{"system":"http://loinc.org","code":"93044-6"}]},"valueCodeableConcept":{"coding":[{"system":"http://hl7.org/fhir/uv/genomics-reporting/CodeSystem/clinvar-evidence-level-custom-cs","code":"2-star","display":"2 star"}]}}]},"request":{"method":"PUT","url":"Observation/mii-exa-molgen-diagnostische-implikation-brca1"}},{"fullUrl":"https://www.medizininformatik-initiative.de/fhir/mii-exa-molgen-untersuchte-region-true-risk-panel-v3-ATM","resource":{"resourceType":"Observation","id":"mii-exa-molgen-untersuchte-region-true-risk-panel-v3-ATM","meta":{"profile":["https://www.medizininformatik-initiative.de/fhir/ext/modul-molgen/StructureDefinition/untersuchte-region","http://hl7.org/fhir/uv/genomics-reporting/StructureDefinition/region-studied"]},"status":"final","category":[{"coding":[{"system":"http://terminology.hl7.org/CodeSystem/observation-category","code":"laboratory","display":"Laboratory"}]}],"code":{"coding":[{"system":"http://loinc.org","code":"53041-0","display":"DNA region of interest panel"}]},"subject":{"reference":"Patient/mii-exa-molgen-patient-brca1"},"performer":[{"reference":"Practitioner/mii-exa-molgen-practitioner-lab"}],"method":{"coding":[{"system":"http://loinc.org","code":"LA26398-0","display":"Sequencing"}]},"specimen":{"reference":"Specimen/mii-exa-molgen-specimen-brca1"},"device":{"reference":"Device/mii-exa-molgen-device-sequencer-nextseq"},"component":[{"code":{"coding":[{"system":"http://loinc.org","code":"48018-6","display":"Gene studied [ID]"}]},"valueCodeableConcept":{"coding":[{"system":"http://www.genenames.org/geneId","code":"HGNC:795","display":"ATM"}]}},{"code":{"coding":[{"system":"http://loinc.org","code":"81293-3","display":"Description of ranges of DNA sequences examined"}]},"valueString":"direkte Sequenzierung der codierenden Exons inkl. flankierender intronischer Bereiche"},{"code":{"coding":[{"system":"http://loinc.org","code":"51958-7"}]},"valueCodeableConcept":{"coding":[{"system":"http://www.ncbi.nlm.nih.gov/refseq","code":"NM_000051.3"}]}}]},"request":{"method":"PUT","url":"Observation/mii-exa-molgen-untersuchte-region-true-risk-panel-v3-ATM"}},{"fullUrl":"https://www.medizininformatik-initiative.de/fhir/mii-exa-molgen-untersuchte-region-true-risk-panel-v3-BRCA1","resource":{"resourceType":"Observation","id":"mii-exa-molgen-untersuchte-region-true-risk-panel-v3-BRCA1","meta":{"profile":["https://www.medizininformatik-initiative.de/fhir/ext/modul-molgen/StructureDefinition/untersuchte-region","http://hl7.org/fhir/uv/genomics-reporting/StructureDefinition/region-studied"]},"status":"final","category":[{"coding":[{"system":"http://terminology.hl7.org/CodeSystem/observation-category","code":"laboratory","display":"Laboratory"}]}],"code":{"coding":[{"system":"http://loinc.org","code":"53041-0","display":"DNA region of interest panel"}]},"subject":{"reference":"Patient/mii-exa-molgen-patient-brca1"},"performer":[{"reference":"Practitioner/mii-exa-molgen-practitioner-lab"}],"method":{"coding":[{"system":"http://loinc.org","code":"LA26398-0","display":"Sequencing"}]},"specimen":{"reference":"Specimen/mii-exa-molgen-specimen-brca1"},"device":{"reference":"Device/mii-exa-molgen-device-sequencer-nextseq"},"component":[{"code":{"coding":[{"system":"http://loinc.org","code":"48018-6","display":"Gene studied [ID]"}]},"valueCodeableConcept":{"coding":[{"system":"http://www.genenames.org/geneId","code":"HGNC:1100","display":"BRCA1"}]}},{"code":{"coding":[{"system":"http://loinc.org","code":"81293-3","display":"Description of ranges of DNA sequences examined"}]},"valueString":"direkte Sequenzierung der codierenden Exons inkl. flankierender intronischer Bereiche"},{"code":{"coding":[{"system":"http://loinc.org","code":"51958-7"}]},"valueCodeableConcept":{"coding":[{"system":"http://www.ncbi.nlm.nih.gov/refseq","code":"NM_007294.3"}]}}]},"request":{"method":"PUT","url":"Observation/mii-exa-molgen-untersuchte-region-true-risk-panel-v3-BRCA1"}},{"fullUrl":"https://www.medizininformatik-initiative.de/fhir/mii-exa-molgen-untersuchte-region-true-risk-panel-v3-BARD1","resource":{"resourceType":"Observation","id":"mii-exa-molgen-untersuchte-region-true-risk-panel-v3-BARD1","meta":{"profile":["https://www.medizininformatik-initiative.de/fhir/ext/modul-molgen/StructureDefinition/untersuchte-region","http://hl7.org/fhir/uv/genomics-reporting/StructureDefinition/region-studied"]},"status":"final","category":[{"coding":[{"system":"http://terminology.hl7.org/CodeSystem/observation-category","code":"laboratory","display":"Laboratory"}]}],"code":{"coding":[{"system":"http://loinc.org","code":"53041-0","display":"DNA region of interest panel"}]},"subject":{"reference":"Patient/mii-exa-molgen-patient-brca1"},"performer":[{"reference":"Practitioner/mii-exa-molgen-practitioner-lab"}],"method":{"coding":[{"system":"http://loinc.org","code":"LA26398-0","display":"Sequencing"}]},"specimen":{"reference":"Specimen/mii-exa-molgen-specimen-brca1"},"device":{"reference":"Device/mii-exa-molgen-device-sequencer-nextseq"},"component":[{"code":{"coding":[{"system":"http://loinc.org","code":"48018-6","display":"Gene studied [ID]"}]},"valueCodeableConcept":{"coding":[{"system":"http://www.genenames.org/geneId","code":"HGNC:952","display":"BARD1"}]}},{"code":{"coding":[{"system":"http://loinc.org","code":"81293-3","display":"Description of ranges of DNA sequences examined"}]},"valueString":"direkte Sequenzierung der codierenden Exons inkl. flankierender intronischer Bereiche"},{"code":{"coding":[{"system":"http://loinc.org","code":"51958-7"}]},"valueCodeableConcept":{"coding":[{"system":"http://www.ncbi.nlm.nih.gov/refseq","code":"NM_000465.3"}]}}]},"request":{"method":"PUT","url":"Observation/mii-exa-molgen-untersuchte-region-true-risk-panel-v3-BARD1"}},{"fullUrl":"https://www.medizininformatik-initiative.de/fhir/mii-exa-molgen-untersuchte-region-true-risk-panel-v3-BRCA2","resource":{"resourceType":"Observation","id":"mii-exa-molgen-untersuchte-region-true-risk-panel-v3-BRCA2","meta":{"profile":["https://www.medizininformatik-initiative.de/fhir/ext/modul-molgen/StructureDefinition/untersuchte-region","http://hl7.org/fhir/uv/genomics-reporting/StructureDefinition/region-studied"]},"status":"final","category":[{"coding":[{"system":"http://terminology.hl7.org/CodeSystem/observation-category","code":"laboratory","display":"Laboratory"}]}],"code":{"coding":[{"system":"http://loinc.org","code":"53041-0","display":"DNA region of interest panel"}]},"subject":{"reference":"Patient/mii-exa-molgen-patient-brca1"},"performer":[{"reference":"Practitioner/mii-exa-molgen-practitioner-lab"}],"method":{"coding":[{"system":"http://loinc.org","code":"LA26398-0","display":"Sequencing"}]},"specimen":{"reference":"Specimen/mii-exa-molgen-specimen-brca1"},"device":{"reference":"Device/mii-exa-molgen-device-sequencer-nextseq"},"component":[{"code":{"coding":[{"system":"http://loinc.org","code":"48018-6","display":"Gene studied [ID]"}]},"valueCodeableConcept":{"coding":[{"system":"http://www.genenames.org/geneId","code":"HGNC:1101","display":"BRCA2"}]}},{"code":{"coding":[{"system":"http://loinc.org","code":"81293-3","display":"Description of ranges of DNA sequences examined"}]},"valueString":"direkte Sequenzierung der codierenden Exons inkl. flankierender intronischer Bereiche"},{"code":{"coding":[{"system":"http://loinc.org","code":"51958-7"}]},"valueCodeableConcept":{"coding":[{"system":"http://www.ncbi.nlm.nih.gov/refseq","code":"NM_000059.3"}]}}]},"request":{"method":"PUT","url":"Observation/mii-exa-molgen-untersuchte-region-true-risk-panel-v3-BRCA2"}},{"fullUrl":"https://www.medizininformatik-initiative.de/fhir/mii-exa-molgen-untersuchte-region-true-risk-panel-v3-BRIP1","resource":{"resourceType":"Observation","id":"mii-exa-molgen-untersuchte-region-true-risk-panel-v3-BRIP1","meta":{"profile":["https://www.medizininformatik-initiative.de/fhir/ext/modul-molgen/StructureDefinition/untersuchte-region","http://hl7.org/fhir/uv/genomics-reporting/StructureDefinition/region-studied"]},"status":"final","category":[{"coding":[{"system":"http://terminology.hl7.org/CodeSystem/observation-category","code":"laboratory","display":"Laboratory"}]}],"code":{"coding":[{"system":"http://loinc.org","code":"53041-0","display":"DNA region of interest panel"}]},"subject":{"reference":"Patient/mii-exa-molgen-patient-brca1"},"performer":[{"reference":"Practitioner/mii-exa-molgen-practitioner-lab"}],"method":{"coding":[{"system":"http://loinc.org","code":"LA26398-0","display":"Sequencing"}]},"specimen":{"reference":"Specimen/mii-exa-molgen-specimen-brca1"},"device":{"reference":"Device/mii-exa-molgen-device-sequencer-nextseq"},"component":[{"code":{"coding":[{"system":"http://loinc.org","code":"48018-6","display":"Gene studied [ID]"}]},"valueCodeableConcept":{"coding":[{"system":"http://www.genenames.org/geneId","code":"HGNC:20473","display":"BRIP1"}]}},{"code":{"coding":[{"system":"http://loinc.org","code":"81293-3","display":"Description of ranges of DNA sequences examined"}]},"valueString":"direkte Sequenzierung der codierenden Exons inkl. flankierender intronischer Bereiche"},{"code":{"coding":[{"system":"http://loinc.org","code":"51958-7"}]},"valueCodeableConcept":{"coding":[{"system":"http://www.ncbi.nlm.nih.gov/refseq","code":"NM_032043.2"}]}}]},"request":{"method":"PUT","url":"Observation/mii-exa-molgen-untersuchte-region-true-risk-panel-v3-BRIP1"}},{"fullUrl":"https://www.medizininformatik-initiative.de/fhir/mii-exa-molgen-untersuchte-region-true-risk-panel-v3-CDH1","resource":{"resourceType":"Observation","id":"mii-exa-molgen-untersuchte-region-true-risk-panel-v3-CDH1","meta":{"profile":["https://www.medizininformatik-initiative.de/fhir/ext/modul-molgen/StructureDefinition/untersuchte-region","http://hl7.org/fhir/uv/genomics-reporting/StructureDefinition/region-studied"]},"status":"final","category":[{"coding":[{"system":"http://terminology.hl7.org/CodeSystem/observation-category","code":"laboratory","display":"Laboratory"}]}],"code":{"coding":[{"system":"http://loinc.org","code":"53041-0","display":"DNA region of interest panel"}]},"subject":{"reference":"Patient/mii-exa-molgen-patient-brca1"},"performer":[{"reference":"Practitioner/mii-exa-molgen-practitioner-lab"}],"method":{"coding":[{"system":"http://loinc.org","code":"LA26398-0","display":"Sequencing"}]},"specimen":{"reference":"Specimen/mii-exa-molgen-specimen-brca1"},"device":{"reference":"Device/mii-exa-molgen-device-sequencer-nextseq"},"component":[{"code":{"coding":[{"system":"http://loinc.org","code":"48018-6","display":"Gene studied [ID]"}]},"valueCodeableConcept":{"coding":[{"system":"http://www.genenames.org/geneId","code":"HGNC:1748","display":"CDH1"}]}},{"code":{"coding":[{"system":"http://loinc.org","code":"81293-3","display":"Description of ranges of DNA sequences examined"}]},"valueString":"direkte Sequenzierung der codierenden Exons inkl. flankierender intronischer Bereiche"},{"code":{"coding":[{"system":"http://loinc.org","code":"51958-7"}]},"valueCodeableConcept":{"coding":[{"system":"http://www.ncbi.nlm.nih.gov/refseq","code":"NM_004360.3"}]}}]},"request":{"method":"PUT","url":"Observation/mii-exa-molgen-untersuchte-region-true-risk-panel-v3-CDH1"}},{"fullUrl":"https://www.medizininformatik-initiative.de/fhir/mii-exa-molgen-untersuchte-region-true-risk-panel-v3-CHECK2","resource":{"resourceType":"Observation","id":"mii-exa-molgen-untersuchte-region-true-risk-panel-v3-CHECK2","meta":{"profile":["https://www.medizininformatik-initiative.de/fhir/ext/modul-molgen/StructureDefinition/untersuchte-region","http://hl7.org/fhir/uv/genomics-reporting/StructureDefinition/region-studied"]},"status":"final","category":[{"coding":[{"system":"http://terminology.hl7.org/CodeSystem/observation-category","code":"laboratory","display":"Laboratory"}]}],"code":{"coding":[{"system":"http://loinc.org","code":"53041-0","display":"DNA region of interest panel"}]},"subject":{"reference":"Patient/mii-exa-molgen-patient-brca1"},"performer":[{"reference":"Practitioner/mii-exa-molgen-practitioner-lab"}],"method":{"coding":[{"system":"http://loinc.org","code":"LA26398-0","display":"Sequencing"}]},"specimen":{"reference":"Specimen/mii-exa-molgen-specimen-brca1"},"device":{"reference":"Device/mii-exa-molgen-device-sequencer-nextseq"},"component":[{"code":{"coding":[{"system":"http://loinc.org","code":"48018-6","display":"Gene studied [ID]"}]},"valueCodeableConcept":{"coding":[{"system":"http://www.genenames.org/geneId","code":"HGNC:16627","display":"CHECK2"}]}},{"code":{"coding":[{"system":"http://loinc.org","code":"81293-3","display":"Description of ranges of DNA sequences examined"}]},"valueString":"direkte Sequenzierung der codierenden Exons inkl. flankierender intronischer Bereiche"},{"code":{"coding":[{"system":"http://loinc.org","code":"51958-7"}]},"valueCodeableConcept":{"coding":[{"system":"http://www.ncbi.nlm.nih.gov/refseq","code":"NM_007194.3"}]}}]},"request":{"method":"PUT","url":"Observation/mii-exa-molgen-untersuchte-region-true-risk-panel-v3-CHECK2"}},{"fullUrl":"https://www.medizininformatik-initiative.de/fhir/mii-exa-molgen-untersuchte-region-true-risk-panel-v3-MLH1","resource":{"resourceType":"Observation","id":"mii-exa-molgen-untersuchte-region-true-risk-panel-v3-MLH1","meta":{"profile":["https://www.medizininformatik-initiative.de/fhir/ext/modul-molgen/StructureDefinition/untersuchte-region","http://hl7.org/fhir/uv/genomics-reporting/StructureDefinition/region-studied"]},"status":"final","category":[{"coding":[{"system":"http://terminology.hl7.org/CodeSystem/observation-category","code":"laboratory","display":"Laboratory"}]}],"code":{"coding":[{"system":"http://loinc.org","code":"53041-0","display":"DNA region of interest panel"}]},"subject":{"reference":"Patient/mii-exa-molgen-patient-brca1"},"performer":[{"reference":"Practitioner/mii-exa-molgen-practitioner-lab"}],"method":{"coding":[{"system":"http://loinc.org","code":"LA26398-0","display":"Sequencing"}]},"specimen":{"reference":"Specimen/mii-exa-molgen-specimen-brca1"},"device":{"reference":"Device/mii-exa-molgen-device-sequencer-nextseq"},"component":[{"code":{"coding":[{"system":"http://loinc.org","code":"48018-6","display":"Gene studied [ID]"}]},"valueCodeableConcept":{"coding":[{"system":"http://www.genenames.org/geneId","code":"HGNC:7127","display":"MLH1"}]}},{"code":{"coding":[{"system":"http://loinc.org","code":"81293-3","display":"Description of ranges of DNA sequences examined"}]},"valueString":"direkte Sequenzierung der codierenden Exons inkl. flankierender intronischer Bereiche"},{"code":{"coding":[{"system":"http://loinc.org","code":"51958-7"}]},"valueCodeableConcept":{"coding":[{"system":"http://www.ncbi.nlm.nih.gov/refseq","code":"NM_000249.3"}]}}]},"request":{"method":"PUT","url":"Observation/mii-exa-molgen-untersuchte-region-true-risk-panel-v3-MLH1"}},{"fullUrl":"https://www.medizininformatik-initiative.de/fhir/mii-exa-molgen-untersuchte-region-true-risk-panel-v3-MSH2","resource":{"resourceType":"Observation","id":"mii-exa-molgen-untersuchte-region-true-risk-panel-v3-MSH2","meta":{"profile":["https://www.medizininformatik-initiative.de/fhir/ext/modul-molgen/StructureDefinition/untersuchte-region","http://hl7.org/fhir/uv/genomics-reporting/StructureDefinition/region-studied"]},"status":"final","category":[{"coding":[{"system":"http://terminology.hl7.org/CodeSystem/observation-category","code":"laboratory","display":"Laboratory"}]}],"code":{"coding":[{"system":"http://loinc.org","code":"53041-0","display":"DNA region of interest panel"}]},"subject":{"reference":"Patient/mii-exa-molgen-patient-brca1"},"performer":[{"reference":"Practitioner/mii-exa-molgen-practitioner-lab"}],"method":{"coding":[{"system":"http://loinc.org","code":"LA26398-0","display":"Sequencing"}]},"specimen":{"reference":"Specimen/mii-exa-molgen-specimen-brca1"},"device":{"reference":"Device/mii-exa-molgen-device-sequencer-nextseq"},"component":[{"code":{"coding":[{"system":"http://loinc.org","code":"48018-6","display":"Gene studied [ID]"}]},"valueCodeableConcept":{"coding":[{"system":"http://www.genenames.org/geneId","code":"HGNC:7325","display":"MSH2"}]}},{"code":{"coding":[{"system":"http://loinc.org","code":"81293-3","display":"Description of ranges of DNA sequences examined"}]},"valueString":"direkte Sequenzierung der codierenden Exons inkl. flankierender intronischer Bereiche"},{"code":{"coding":[{"system":"http://loinc.org","code":"51958-7"}]},"valueCodeableConcept":{"coding":[{"system":"http://www.ncbi.nlm.nih.gov/refseq","code":"NM_000251.2"}]}}]},"request":{"method":"PUT","url":"Observation/mii-exa-molgen-untersuchte-region-true-risk-panel-v3-MSH2"}},{"fullUrl":"https://www.medizininformatik-initiative.de/fhir/mii-exa-molgen-untersuchte-region-true-risk-panel-v3-MSH6","resource":{"resourceType":"Observation","id":"mii-exa-molgen-untersuchte-region-true-risk-panel-v3-MSH6","meta":{"profile":["https://www.medizininformatik-initiative.de/fhir/ext/modul-molgen/StructureDefinition/untersuchte-region","http://hl7.org/fhir/uv/genomics-reporting/StructureDefinition/region-studied"]},"status":"final","category":[{"coding":[{"system":"http://terminology.hl7.org/CodeSystem/observation-category","code":"laboratory","display":"Laboratory"}]}],"code":{"coding":[{"system":"http://loinc.org","code":"53041-0","display":"DNA region of interest panel"}]},"subject":{"reference":"Patient/mii-exa-molgen-patient-brca1"},"performer":[{"reference":"Practitioner/mii-exa-molgen-practitioner-lab"}],"method":{"coding":[{"system":"http://loinc.org","code":"LA26398-0","display":"Sequencing"}]},"specimen":{"reference":"Specimen/mii-exa-molgen-specimen-brca1"},"device":{"reference":"Device/mii-exa-molgen-device-sequencer-nextseq"},"component":[{"code":{"coding":[{"system":"http://loinc.org","code":"48018-6","display":"Gene studied [ID]"}]},"valueCodeableConcept":{"coding":[{"system":"http://www.genenames.org/geneId","code":"HGNC:7329","display":"MSH6"}]}},{"code":{"coding":[{"system":"http://loinc.org","code":"81293-3","display":"Description of ranges of DNA sequences examined"}]},"valueString":"direkte Sequenzierung der codierenden Exons inkl. flankierender intronischer Bereiche"},{"code":{"coding":[{"system":"http://loinc.org","code":"51958-7"}]},"valueCodeableConcept":{"coding":[{"system":"http://www.ncbi.nlm.nih.gov/refseq","code":"NM_000179.2"}]}}]},"request":{"method":"PUT","url":"Observation/mii-exa-molgen-untersuchte-region-true-risk-panel-v3-MSH6"}},{"fullUrl":"https://www.medizininformatik-initiative.de/fhir/mii-exa-molgen-untersuchte-region-true-risk-panel-v3-PALB2","resource":{"resourceType":"Observation","id":"mii-exa-molgen-untersuchte-region-true-risk-panel-v3-PALB2","meta":{"profile":["https://www.medizininformatik-initiative.de/fhir/ext/modul-molgen/StructureDefinition/untersuchte-region","http://hl7.org/fhir/uv/genomics-reporting/StructureDefinition/region-studied"]},"status":"final","category":[{"coding":[{"system":"http://terminology.hl7.org/CodeSystem/observation-category","code":"laboratory","display":"Laboratory"}]}],"code":{"coding":[{"system":"http://loinc.org","code":"53041-0","display":"DNA region of interest panel"}]},"subject":{"reference":"Patient/mii-exa-molgen-patient-brca1"},"performer":[{"reference":"Practitioner/mii-exa-molgen-practitioner-lab"}],"method":{"coding":[{"system":"http://loinc.org","code":"LA26398-0","display":"Sequencing"}]},"specimen":{"reference":"Specimen/mii-exa-molgen-specimen-brca1"},"device":{"reference":"Device/mii-exa-molgen-device-sequencer-nextseq"},"component":[{"code":{"coding":[{"system":"http://loinc.org","code":"48018-6","display":"Gene studied [ID]"}]},"valueCodeableConcept":{"coding":[{"system":"http://www.genenames.org/geneId","code":"HGNC:26144","display":"PALB2"}]}},{"code":{"coding":[{"system":"http://loinc.org","code":"81293-3","display":"Description of ranges of DNA sequences examined"}]},"valueString":"direkte Sequenzierung der codierenden Exons inkl. flankierender intronischer Bereiche"},{"code":{"coding":[{"system":"http://loinc.org","code":"51958-7"}]},"valueCodeableConcept":{"coding":[{"system":"http://www.ncbi.nlm.nih.gov/refseq","code":"NM_024675.3"}]}}]},"request":{"method":"PUT","url":"Observation/mii-exa-molgen-untersuchte-region-true-risk-panel-v3-PALB2"}},{"fullUrl":"https://www.medizininformatik-initiative.de/fhir/mii-exa-molgen-untersuchte-region-true-risk-panel-v3-PMS2","resource":{"resourceType":"Observation","id":"mii-exa-molgen-untersuchte-region-true-risk-panel-v3-PMS2","meta":{"profile":["https://www.medizininformatik-initiative.de/fhir/ext/modul-molgen/StructureDefinition/untersuchte-region","http://hl7.org/fhir/uv/genomics-reporting/StructureDefinition/region-studied"]},"status":"final","category":[{"coding":[{"system":"http://terminology.hl7.org/CodeSystem/observation-category","code":"laboratory","display":"Laboratory"}]}],"code":{"coding":[{"system":"http://loinc.org","code":"53041-0","display":"DNA region of interest panel"}]},"subject":{"reference":"Patient/mii-exa-molgen-patient-brca1"},"performer":[{"reference":"Practitioner/mii-exa-molgen-practitioner-lab"}],"method":{"coding":[{"system":"http://loinc.org","code":"LA26398-0","display":"Sequencing"}]},"specimen":{"reference":"Specimen/mii-exa-molgen-specimen-brca1"},"device":{"reference":"Device/mii-exa-molgen-device-sequencer-nextseq"},"component":[{"code":{"coding":[{"system":"http://loinc.org","code":"48018-6","display":"Gene studied [ID]"}]},"valueCodeableConcept":{"coding":[{"system":"http://www.genenames.org/geneId","code":"HGNC:9122","display":"PMS2"}]}},{"code":{"coding":[{"system":"http://loinc.org","code":"81293-3","display":"Description of ranges of DNA sequences examined"}]},"valueString":"direkte Sequenzierung der codierenden Exons inkl. flankierender intronischer Bereiche"},{"code":{"coding":[{"system":"http://loinc.org","code":"51958-7"}]},"valueCodeableConcept":{"coding":[{"system":"http://www.ncbi.nlm.nih.gov/refseq","code":"NM_000535.5"}]}}]},"request":{"method":"PUT","url":"Observation/mii-exa-molgen-untersuchte-region-true-risk-panel-v3-PMS2"}},{"fullUrl":"https://www.medizininformatik-initiative.de/fhir/mii-exa-molgen-untersuchte-region-true-risk-panel-v3-PTEN","resource":{"resourceType":"Observation","id":"mii-exa-molgen-untersuchte-region-true-risk-panel-v3-PTEN","meta":{"profile":["https://www.medizininformatik-initiative.de/fhir/ext/modul-molgen/StructureDefinition/untersuchte-region","http://hl7.org/fhir/uv/genomics-reporting/StructureDefinition/region-studied"]},"status":"final","category":[{"coding":[{"system":"http://terminology.hl7.org/CodeSystem/observation-category","code":"laboratory","display":"Laboratory"}]}],"code":{"coding":[{"system":"http://loinc.org","code":"53041-0","display":"DNA region of interest panel"}]},"subject":{"reference":"Patient/mii-exa-molgen-patient-brca1"},"performer":[{"reference":"Practitioner/mii-exa-molgen-practitioner-lab"}],"method":{"coding":[{"system":"http://loinc.org","code":"LA26398-0","display":"Sequencing"}]},"specimen":{"reference":"Specimen/mii-exa-molgen-specimen-brca1"},"device":{"reference":"Device/mii-exa-molgen-device-sequencer-nextseq"},"component":[{"code":{"coding":[{"system":"http://loinc.org","code":"48018-6","display":"Gene studied [ID]"}]},"valueCodeableConcept":{"coding":[{"system":"http://www.genenames.org/geneId","code":"HGNC:9588","display":"PTEN"}]}},{"code":{"coding":[{"system":"http://loinc.org","code":"81293-3","display":"Description of ranges of DNA sequences examined"}]},"valueString":"direkte Sequenzierung der codierenden Exons inkl. flankierender intronischer Bereiche"},{"code":{"coding":[{"system":"http://loinc.org","code":"51958-7"}]},"valueCodeableConcept":{"coding":[{"system":"http://www.ncbi.nlm.nih.gov/refseq","code":"NM_000314.4"}]}}]},"request":{"method":"PUT","url":"Observation/mii-exa-molgen-untersuchte-region-true-risk-panel-v3-PTEN"}},{"fullUrl":"https://www.medizininformatik-initiative.de/fhir/mii-exa-molgen-untersuchte-region-true-risk-panel-v3-RAD51C","resource":{"resourceType":"Observation","id":"mii-exa-molgen-untersuchte-region-true-risk-panel-v3-RAD51C","meta":{"profile":["https://www.medizininformatik-initiative.de/fhir/ext/modul-molgen/StructureDefinition/untersuchte-region","http://hl7.org/fhir/uv/genomics-reporting/StructureDefinition/region-studied"]},"status":"final","category":[{"coding":[{"system":"http://terminology.hl7.org/CodeSystem/observation-category","code":"laboratory","display":"Laboratory"}]}],"code":{"coding":[{"system":"http://loinc.org","code":"53041-0","display":"DNA region of interest panel"}]},"subject":{"reference":"Patient/mii-exa-molgen-patient-brca1"},"performer":[{"reference":"Practitioner/mii-exa-molgen-practitioner-lab"}],"method":{"coding":[{"system":"http://loinc.org","code":"LA26398-0","display":"Sequencing"}]},"specimen":{"reference":"Specimen/mii-exa-molgen-specimen-brca1"},"device":{"reference":"Device/mii-exa-molgen-device-sequencer-nextseq"},"component":[{"code":{"coding":[{"system":"http://loinc.org","code":"48018-6","display":"Gene studied [ID]"}]},"valueCodeableConcept":{"coding":[{"system":"http://www.genenames.org/geneId","code":"HGNC:9820","display":"RAD51C"}]}},{"code":{"coding":[{"system":"http://loinc.org","code":"81293-3","display":"Description of ranges of DNA sequences examined"}]},"valueString":"direkte Sequenzierung der codierenden Exons inkl. flankierender intronischer Bereiche"},{"code":{"coding":[{"system":"http://loinc.org","code":"51958-7"}]},"valueCodeableConcept":{"coding":[{"system":"http://www.ncbi.nlm.nih.gov/refseq","code":"NM_058216.2"}]}}]},"request":{"method":"PUT","url":"Observation/mii-exa-molgen-untersuchte-region-true-risk-panel-v3-RAD51C"}},{"fullUrl":"https://www.medizininformatik-initiative.de/fhir/mii-exa-molgen-untersuchte-region-true-risk-panel-v3-RAD51D","resource":{"resourceType":"Observation","id":"mii-exa-molgen-untersuchte-region-true-risk-panel-v3-RAD51D","meta":{"profile":["https://www.medizininformatik-initiative.de/fhir/ext/modul-molgen/StructureDefinition/untersuchte-region","http://hl7.org/fhir/uv/genomics-reporting/StructureDefinition/region-studied"]},"status":"final","category":[{"coding":[{"system":"http://terminology.hl7.org/CodeSystem/observation-category","code":"laboratory","display":"Laboratory"}]}],"code":{"coding":[{"system":"http://loinc.org","code":"53041-0","display":"DNA region of interest panel"}]},"subject":{"reference":"Patient/mii-exa-molgen-patient-brca1"},"performer":[{"reference":"Practitioner/mii-exa-molgen-practitioner-lab"}],"method":{"coding":[{"system":"http://loinc.org","code":"LA26398-0","display":"Sequencing"}]},"specimen":{"reference":"Specimen/mii-exa-molgen-specimen-brca1"},"device":{"reference":"Device/mii-exa-molgen-device-sequencer-nextseq"},"component":[{"code":{"coding":[{"system":"http://loinc.org","code":"48018-6","display":"Gene studied [ID]"}]},"valueCodeableConcept":{"coding":[{"system":"http://www.genenames.org/geneId","code":"HGNC:9823","display":"RAD51D"}]}},{"code":{"coding":[{"system":"http://loinc.org","code":"81293-3","display":"Description of ranges of DNA sequences examined"}]},"valueString":"direkte Sequenzierung der codierenden Exons inkl. flankierender intronischer Bereiche"},{"code":{"coding":[{"system":"http://loinc.org","code":"51958-7"}]},"valueCodeableConcept":{"coding":[{"system":"http://www.ncbi.nlm.nih.gov/refseq","code":"NM_002878.3"}]}}]},"request":{"method":"PUT","url":"Observation/mii-exa-molgen-untersuchte-region-true-risk-panel-v3-RAD51D"}},{"fullUrl":"https://www.medizininformatik-initiative.de/fhir/mii-exa-molgen-untersuchte-region-true-risk-panel-v3-TP53","resource":{"resourceType":"Observation","id":"mii-exa-molgen-untersuchte-region-true-risk-panel-v3-TP53","meta":{"profile":["https://www.medizininformatik-initiative.de/fhir/ext/modul-molgen/StructureDefinition/untersuchte-region","http://hl7.org/fhir/uv/genomics-reporting/StructureDefinition/region-studied"]},"status":"final","category":[{"coding":[{"system":"http://terminology.hl7.org/CodeSystem/observation-category","code":"laboratory","display":"Laboratory"}]}],"code":{"coding":[{"system":"http://loinc.org","code":"53041-0","display":"DNA region of interest panel"}]},"subject":{"reference":"Patient/mii-exa-molgen-patient-brca1"},"performer":[{"reference":"Practitioner/mii-exa-molgen-practitioner-lab"}],"method":{"coding":[{"system":"http://loinc.org","code":"LA26398-0","display":"Sequencing"}]},"specimen":{"reference":"Specimen/mii-exa-molgen-specimen-brca1"},"device":{"reference":"Device/mii-exa-molgen-device-sequencer-nextseq"},"component":[{"code":{"coding":[{"system":"http://loinc.org","code":"48018-6","display":"Gene studied [ID]"}]},"valueCodeableConcept":{"coding":[{"system":"http://www.genenames.org/geneId","code":"HGNC:11998","display":"TP53"}]}},{"code":{"coding":[{"system":"http://loinc.org","code":"81293-3","display":"Description of ranges of DNA sequences examined"}]},"valueString":"direkte Sequenzierung der codierenden Exons inkl. flankierender intronischer Bereiche"},{"code":{"coding":[{"system":"http://loinc.org","code":"51958-7"}]},"valueCodeableConcept":{"coding":[{"system":"http://www.ncbi.nlm.nih.gov/refseq","code":"NM_000546.5"}]}}]},"request":{"method":"PUT","url":"Observation/mii-exa-molgen-untersuchte-region-true-risk-panel-v3-TP53"}}]}