{"resourceType":"Bundle","id":"mii-exa-befund-bundle-befund-2-nipbl-clinical","type":"transaction","timestamp":"2022-11-21T14:44:00+01:00","entry":[{"fullUrl":"https://www.medizininformatik-initiative.de/fhir/mii-exa-molgen-patient-2","resource":{"resourceType":"Patient","id":"mii-exa-molgen-patient-2","meta":{"profile":["https://www.medizininformatik-initiative.de/fhir/core/modul-person/StructureDefinition/Patient"]},"identifier":[{"use":"usual","type":{"coding":[{"system":"http://terminology.hl7.org/CodeSystem/v2-0203","code":"MR"}]},"system":"https://www.charite.de/fhir/sid/patienten","value":"146314909","assigner":{"identifier":{"system":"https://www.medizininformatik-initiative.de/fhir/core/CodeSystem/core-location-identifier","value":"Charité"},"display":"Charité - Universitätsmedizin Berlin"}},{"use":"official","type":{"coding":[{"system":"http://fhir.de/CodeSystem/identifier-type-de-basis","code":"GKV"}]},"system":"http://fhir.de/sid/gkv/kvid-10","value":"Z900211002","assigner":{"identifier":{"use":"official","system":"http://fhir.de/sid/arge-ik/iknr","value":"109519005"}}}],"name":[{"use":"official","family":"Müller","_family":{"extension":[{"url":"http://hl7.org/fhir/StructureDefinition/humanname-own-name","valueString":"Müller"}]},"given":["Melanie","Marie"]}],"gender":"female","birthDate":"2021-09-19","deceasedBoolean":false,"address":[{"type":"both","line":["Anna-Louisa-Karsch Str. 2"],"city":"Berlin","state":"DE-BE","postalCode":"10178","country":"DE"}]},"request":{"method":"PUT","url":"Patient/mii-exa-molgen-patient-2"}},{"fullUrl":"https://www.medizininformatik-initiative.de/fhir/mii-exa-molgen-practitioner-lab","resource":{"resourceType":"Practitioner","id":"mii-exa-molgen-practitioner-lab","active":true,"name":[{"use":"official","text":"Dr. Daniel Schmidt","family":"Schmidt","given":["Daniel"],"prefix":["Dr."]}]},"request":{"method":"PUT","url":"Practitioner/mii-exa-molgen-practitioner-lab"}},{"fullUrl":"https://www.medizininformatik-initiative.de/fhir/mii-exa-molgen-practitioner-physician","resource":{"resourceType":"Practitioner","id":"mii-exa-molgen-practitioner-physician","active":true,"name":[{"use":"official","text":"Dr. Linda Rubens","family":"Rubens","given":["Linda"],"prefix":["Dr."]}]},"request":{"method":"PUT","url":"Practitioner/mii-exa-molgen-practitioner-physician"}},{"fullUrl":"https://www.medizininformatik-initiative.de/fhir/mii-exa-molgen-condition-nipbl-clinical","resource":{"resourceType":"Condition","id":"mii-exa-molgen-condition-nipbl-clinical","meta":{"profile":["https://www.medizininformatik-initiative.de/fhir/core/modul-diagnose/StructureDefinition/Diagnose"]},"clinicalStatus":{"coding":[{"system":"http://terminology.hl7.org/CodeSystem/condition-clinical","code":"active"}]},"verificationStatus":{"coding":[{"system":"http://terminology.hl7.org/CodeSystem/condition-ver-status","code":"confirmed"}]},"code":{"coding":[{"extension":[{"url":"http://fhir.de/StructureDefinition/icd-10-gm-diagnosesicherheit","valueCoding":{"system":"https://fhir.kbv.de/CodeSystem/KBV_CS_SFHIR_ICD_DIAGNOSESICHERHEIT","code":"G"}}],"system":"http://fhir.de/CodeSystem/bfarm/icd-10-gm","version":"2021","code":"Q87.1","display":"Angeborene Fehlbildungssyndrome, die vorwiegend mit Kleinwuchs einhergehen"},{"system":"http://www.omim.org","code":"122470","display":"Cornelia de Lange syndrome 1"}]},"subject":{"reference":"Patient/mii-exa-molgen-patient-2"},"onsetPeriod":{"start":"2021-09-19","_start":{"extension":[{"url":"http://fhir.de/StructureDefinition/lebensphase","valueCodeableConcept":{"coding":[{"system":"http://snomed.info/sct","code":"255407002","display":"Neonatal (qualifier value)"}]}}]}},"recordedDate":"2022-03-06T07:36:00+01:00","recorder":{"reference":"Practitioner/mii-exa-molgen-practitioner-physician"},"asserter":{"reference":"Practitioner/mii-exa-molgen-practitioner-physician"},"evidence":[{"detail":[{"reference":"DiagnosticReport/mii-exa-molgen-molekulargenetischer-befundbericht-2"}]}]},"request":{"method":"PUT","url":"Condition/mii-exa-molgen-condition-nipbl-clinical"}},{"fullUrl":"https://www.medizininformatik-initiative.de/fhir/mii-exa-molgen-phenotypic-feature-1","resource":{"resourceType":"Observation","id":"mii-exa-molgen-phenotypic-feature-1","status":"final","category":[{"coding":[{"system":"http://terminology.hl7.org/CodeSystem/observation-category","code":"exam"}]}],"code":{"coding":[{"system":"http://human-phenotype-ontology.org","code":"HP:0000527","display":"Long eyelashes"}]},"subject":{"reference":"Patient/mii-exa-molgen-patient-2"},"effectiveDateTime":"2022-03-13T09:30:00+01:00","performer":[{"reference":"Practitioner/mii-exa-molgen-practitioner-physician"}],"valueCodeableConcept":{"coding":[{"system":"http://loinc.org","code":"LA9633-4","display":"Present"}]}},"request":{"method":"PUT","url":"Observation/mii-exa-molgen-phenotypic-feature-1"}},{"fullUrl":"https://www.medizininformatik-initiative.de/fhir/mii-exa-molgen-phenotypic-feature-2","resource":{"resourceType":"Observation","id":"mii-exa-molgen-phenotypic-feature-2","status":"final","category":[{"coding":[{"system":"http://terminology.hl7.org/CodeSystem/observation-category","code":"exam"}]}],"code":{"coding":[{"system":"http://human-phenotype-ontology.org","code":"HP:0001518","display":"Small for gestational age"}]},"subject":{"reference":"Patient/mii-exa-molgen-patient-2"},"effectiveDateTime":"2022-03-13T09:30:00+01:00","performer":[{"reference":"Practitioner/mii-exa-molgen-practitioner-physician"}],"valueCodeableConcept":{"coding":[{"system":"http://loinc.org","code":"LA9633-4","display":"Present"}]}},"request":{"method":"PUT","url":"Observation/mii-exa-molgen-phenotypic-feature-2"}},{"fullUrl":"https://www.medizininformatik-initiative.de/fhir/mii-exa-molgen-phenotypic-feature-3","resource":{"resourceType":"Observation","id":"mii-exa-molgen-phenotypic-feature-3","status":"final","category":[{"coding":[{"system":"http://terminology.hl7.org/CodeSystem/observation-category","code":"exam"}]}],"code":{"coding":[{"system":"http://human-phenotype-ontology.org","code":"HP:0000252","display":"Microcephaly"}]},"subject":{"reference":"Patient/mii-exa-molgen-patient-2"},"effectiveDateTime":"2022-03-13T09:30:00+01:00","performer":[{"reference":"Practitioner/mii-exa-molgen-practitioner-physician"}],"valueCodeableConcept":{"coding":[{"system":"http://loinc.org","code":"LA9633-4","display":"Present"}]}},"request":{"method":"PUT","url":"Observation/mii-exa-molgen-phenotypic-feature-3"}},{"fullUrl":"https://www.medizininformatik-initiative.de/fhir/mii-exa-molgen-phenotypic-feature-4","resource":{"resourceType":"Observation","id":"mii-exa-molgen-phenotypic-feature-4","status":"final","category":[{"coding":[{"system":"http://terminology.hl7.org/CodeSystem/observation-category","code":"exam"}]}],"code":{"coding":[{"system":"http://human-phenotype-ontology.org","code":"HP:0003560","display":"Muscular dystrophy"}]},"subject":{"reference":"Patient/mii-exa-molgen-patient-2"},"effectiveDateTime":"2022-03-13T09:30:00+01:00","performer":[{"reference":"Practitioner/mii-exa-molgen-practitioner-physician"}],"valueCodeableConcept":{"coding":[{"system":"http://loinc.org","code":"LA9633-4","display":"Present"}]}},"request":{"method":"PUT","url":"Observation/mii-exa-molgen-phenotypic-feature-4"}},{"fullUrl":"https://www.medizininformatik-initiative.de/fhir/mii-exa-molgen-molekulargenetischer-befundbericht-2","resource":{"resourceType":"DiagnosticReport","id":"mii-exa-molgen-molekulargenetischer-befundbericht-2","meta":{"profile":["https://www.medizininformatik-initiative.de/fhir/ext/modul-molgen/StructureDefinition/molekulargenetischer-befundbericht","http://hl7.org/fhir/uv/genomics-reporting/StructureDefinition/genomics-report"]},"extension":[{"url":"http://hl7.org/fhir/uv/genomics-reporting/StructureDefinition/genomics-artifact","valueRelatedArtifact":{"type":"citation","citation":"Gillis LA, McCallum J, Kaur M, DeScipio C, Yaeger D, Mariani A, Kline AD, Li HH, Devoto M, Jackson LG, Krantz ID. NIPBL mutational analysis in 120 individuals with Cornelia de Lange syndrome and evaluation of genotype-phenotype correlations. Am J Hum Genet. 2004 Oct;75(4):610-23. doi: 10.1086/424698. Epub 2004 Aug 18. PMID: 15318302; PMCID: PMC1182048.","url":"https://pubmed.ncbi.nlm.nih.gov/15318302/"}},{"url":"http://hl7.org/fhir/uv/genomics-reporting/StructureDefinition/genomics-artifact","valueRelatedArtifact":{"type":"citation","citation":"Kawauchi S, Calof AL, Santos R, Lopez-Burks ME, Young CM, Hoang MP, Chua A, Lao T, Lechner MS, Daniel JA, Nussenzweig A, Kitzes L, Yokomori K, Hallgrimsson B, Lander AD. Multiple organ system defects and transcriptional dysregulation in the Nipbl(+/-) mouse, a model of Cornelia de Lange Syndrome. PLoS Genet. 2009 Sep;5(9):e1000650. doi: 10.1371/journal.pgen.1000650. Epub 2009 Sep 18. PMID: 19763162; PMCID: PMC2730539.","url":"https://pubmed.ncbi.nlm.nih.gov/19763162/"}},{"url":"http://hl7.org/fhir/uv/genomics-reporting/StructureDefinition/genomics-artifact","valueRelatedArtifact":{"type":"citation","citation":"Huisman SA, Redeker EJ, Maas SM, Mannens MM, Hennekam RC. High rate of mosaicism in individuals with Cornelia de Lange syndrome. J Med Genet. 2013 May;50(5):339-44. doi: 10.1136/jmedgenet-2012-101477. Epub 2013 Mar 15. PMID: 23505322.","url":"https://pubmed.ncbi.nlm.nih.gov/23505322/"}},{"url":"http://hl7.org/fhir/uv/genomics-reporting/StructureDefinition/genomics-artifact","valueRelatedArtifact":{"type":"citation","citation":"Kline AD, Moss JF, Selicorni A, Bisgaard AM, Deardorff MA, Gillett PM, Ishman SL, Kerr LM, Levin AV, Mulder PA, Ramos FJ, Wierzba J, Ajmone PF, Axtell D, Blagowidow N, Cereda A, Costantino A, Cormier-Daire V, FitzPatrick D, Grados M, Groves L, Guthrie W, Huisman S, Kaiser FJ, Koekkoek G, Levis M, Mariani M, McCleery JP, Menke LA, Metrena A, O'Connor J, Oliver C, Pie J, Piening S, Potter CJ, Quaglio AL, Redeker E, Richman D, Rigamonti C, Shi A, Tümer Z, Van Balkom IDC, Hennekam RC. Diagnosis and management of Cornelia de Lange syndrome: first international consensus statement. Nat Rev Genet. 2018 Oct;19(10):649-666. doi: 10.1038/s41576-018-0031-0. PMID: 29995837; PMCID: PMC7136165.","url":"https://pubmed.ncbi.nlm.nih.gov/29995837/"}},{"url":"http://hl7.org/fhir/uv/genomics-reporting/StructureDefinition/genomic-report-note","valueAnnotation":{"extension":[{"url":"http://hl7.org/fhir/uv/genomics-reporting/StructureDefinition/annotation-code","valueCodeableConcept":{"coding":[{"system":"http://snomed.info/sct","code":"116148004","display":"Molecular genetics procedure (procedure)"}]}}],"text":"Gen-Panel zusammengestellt nach den aktuellen Empfehlungen des Deutschen Konsortiums für erblichen Brust- und Eierstockkrebs sowie der ClinGen Breast/Ovarian Cancer Working Group (Lee et al. 2019, PMID: 30504931). Nach DNA-Extraktion wurden alle kodierenden Exons der zu untersuchenden Gene einschließlich flankierender intronischer Regionen (mindestens von -3 bis +8) angereichert (Custom Panel V02, IDT) und auf einem Illumina NextSeq 500-, NextSeq 550- oder NovaSeq 6000-Sequencer sequenziert. Zur Verifizierung der DNA-Probe wurden 14 SNPs (Single Nucleotide Polymorphism) mittels kompetitiver allelspezifischer PCR unter Verwendung fluoreszenzmarkierter Primer amplifiziert (StepOnePlus System, ThermoFisher Scientific) und analysiert (StepOnePlus software für Genotyping Experiments) und die Ergebnisse mit den Daten der NGS-Analyse verglichen (megSAP). Der Abgleich der ermittelten DNA-Sequenz erfolgte mit den in den Gendatenbanken niedergelegten Sequenzen: BRCA1 - NCBI Reference Sequence NM_007294.2, BRCA2 - ensembl ENST00000380152, ATM - NCBI Reference Sequence NM_000051.3, BARD1 - ENST00000260947.4, BRIP1 - NCBI Reference Sequence NM_032043.2, CDH1 - ensembl ENST00000261769, CHEK2 - NCBI Reference Sequence NM_007194.3, PALB2 - ensembl ENST00000261584, PTEN -  NCBI Reference Sequence NM_000214.4, RAD51C - ensembl ENST00000337432, RAD51D - ensembl ENST00000345365,  STK11 -  ensembl ENST00000326873.7 und TP53 - ensembl ENST00000269305. Es wurden außerdem Varianten nachgewiesen, die nach heutigem Wissensstand als Normvarianten ohne pathologische Bedeutung zu werten sind."}},{"url":"http://hl7.org/fhir/StructureDefinition/workflow-supportingInfo","valueReference":{"reference":"ChargeItem/mii-exa-molgen-chargeitem-ebm-21"}},{"url":"http://hl7.org/fhir/StructureDefinition/workflow-supportingInfo","valueReference":{"reference":"ChargeItem/mii-exa-molgen-chargeitem-ebm-22"}},{"url":"http://hl7.org/fhir/StructureDefinition/workflow-supportingInfo","valueReference":{"reference":"ChargeItem/mii-exa-molgen-chargeitem-ebm-23"}},{"url":"http://hl7.org/fhir/StructureDefinition/workflow-supportingInfo","valueReference":{"reference":"ChargeItem/mii-exa-molgen-chargeitem-ebm-24"}},{"url":"http://hl7.org/fhir/StructureDefinition/workflow-supportingInfo","valueReference":{"reference":"Condition/mii-exa-molgen-bundle-befund-2-nipbl-condition-lab"}}],"basedOn":[{"reference":"ServiceRequest/mii-exa-molgen-anforderung-2"}],"status":"final","category":[{"coding":[{"system":"http://terminology.hl7.org/CodeSystem/v2-0074","code":"GE","display":"Genetics"}]}],"code":{"coding":[{"system":"http://loinc.org","code":"51969-4","display":"Genetic analysis report"}]},"subject":{"reference":"Patient/mii-exa-molgen-patient-2"},"performer":[{"reference":"Practitioner/mii-exa-molgen-practitioner-lab"}],"specimen":[{"reference":"Specimen/mii-exa-molgen-specimen-2"}],"result":[{"reference":"Observation/mii-exa-molgen-diagnostische-implikation-2"},{"reference":"Observation/mii-exa-molgen-variante-2"},{"reference":"Observation/mii-exa-molgen-untersuchte-region-2-nipbl"},{"reference":"Observation/mii-exa-molgen-untersuchte-region-2-hdac8"},{"reference":"Observation/mii-exa-molgen-untersuchte-region-2-rad21"},{"reference":"Observation/mii-exa-molgen-untersuchte-region-2-smc1a"},{"reference":"Observation/mii-exa-molgen-untersuchte-region-2-smc3"},{"reference":"Observation/mii-exa-molgen-untersuchte-region-2-tp63"}],"conclusion":"Nachweis der pathogenen Variante c.2207del p.(Pro736Glnfs*58) (heterozygot) im NIPBL-Gen."},"request":{"method":"PUT","url":"DiagnosticReport/mii-exa-molgen-molekulargenetischer-befundbericht-2"}},{"fullUrl":"https://www.medizininformatik-initiative.de/fhir/mii-exa-molgen-anforderung-2","resource":{"resourceType":"ServiceRequest","id":"mii-exa-molgen-anforderung-2","meta":{"profile":["https://www.medizininformatik-initiative.de/fhir/ext/modul-molgen/StructureDefinition/anforderung-genetischer-test"]},"identifier":[{"system":"https://www.charite.de/fhir/auftragsnummern","value":"gen_test_02"}],"status":"active","intent":"order","category":[{"coding":[{"system":"http://snomed.info/sct","code":"108252007","display":"Laboratory procedure (procedure)"}]}],"code":{"coding":[{"system":"http://snomed.info/sct","code":"405825005","display":"Molecular genetic test (procedure)"},{"system":"http://loinc.org","code":"40428-5","display":"NIPBL gene targeted mutation analysis in Blood or Tissue by Molecular genetics method"},{"system":"http://www.genenames.org/geneId","code":"HGNC:28862","display":"NIPBL"}],"text":"Molekulargenetische Diagnose eines Cornelia de Lange-Syndrom (MIM122470),autosomal dominanter Erbgang"},"subject":{"reference":"Patient/mii-exa-molgen-patient-2"},"authoredOn":"2022-03-16","requester":{"reference":"Practitioner/mii-exa-molgen-practitioner-physician"},"reasonCode":[{"coding":[{"system":"http://snomed.info/sct","code":"395507008","display":"Premature infant (finding)"}]},{"coding":[{"system":"http://snomed.info/sct","code":"276610007","display":"Low birth weight infant (disorder)"},{"system":"http://human-phenotype-ontology.org","code":"HP:0001518","display":"Small for gestational age"}]},{"coding":[{"system":"http://snomed.info/sct","code":"431265009","display":"Fetal microcephaly (disorder)"},{"system":"http://human-phenotype-ontology.org","code":"HP:0000252","display":"Microcephaly"}]},{"coding":[{"system":"http://snomed.info/sct","code":"137511000119103","display":"Carrier of muscular dystrophy (finding)"},{"system":"http://human-phenotype-ontology.org","code":"HP:0003560","display":"Muscular dystrophy"}]},{"coding":[{"system":"http://human-phenotype-ontology.org","code":"HP:0000527","display":"Long eyelashes"}]}],"reasonReference":[{"reference":"Observation/mii-exa-molgen-phenotypic-feature-1"},{"reference":"Observation/mii-exa-molgen-phenotypic-feature-2"},{"reference":"Observation/mii-exa-molgen-phenotypic-feature-3"},{"reference":"Observation/mii-exa-molgen-phenotypic-feature-4"}],"specimen":[{"reference":"Specimen/mii-exa-molgen-specimen-2"}]},"request":{"method":"PUT","url":"ServiceRequest/mii-exa-molgen-anforderung-2"}},{"fullUrl":"https://www.medizininformatik-initiative.de/fhir/mii-exa-molgen-chargeitem-ebm-21","resource":{"resourceType":"ChargeItem","id":"mii-exa-molgen-chargeitem-ebm-21","meta":{"profile":["http://fhir.de/StructureDefinition/chargeitem-de-ebm"]},"status":"billable","code":{"coding":[{"system":"https://fhir.kbv.de/NamingSystem/KBV_NS_Base_EBM","code":"11513","display":"Postnatale Mutationssuche zum Nachweis oder Ausschluss einer krankheitsrelevanten oder krankheitsauslösenden konstitutionellen genomischen Mutation"}]},"subject":{"reference":"Patient/mii-exa-molgen-patient-2"},"quantity":{"value":72}},"request":{"method":"PUT","url":"ChargeItem/mii-exa-molgen-chargeitem-ebm-21"}},{"fullUrl":"https://www.medizininformatik-initiative.de/fhir/mii-exa-molgen-chargeitem-ebm-22","resource":{"resourceType":"ChargeItem","id":"mii-exa-molgen-chargeitem-ebm-22","meta":{"profile":["http://fhir.de/StructureDefinition/chargeitem-de-ebm"]},"status":"billable","code":{"coding":[{"system":"https://fhir.kbv.de/NamingSystem/KBV_NS_Base_EBM","code":"11512","display":"Gezielter Nachweis oder Ausschluss von krankheitsrelevanten oder krankheitsauslösenden großen Deletionen und/oder Duplikationen"}]},"subject":{"reference":"Patient/mii-exa-molgen-patient-2"},"quantity":{"value":6}},"request":{"method":"PUT","url":"ChargeItem/mii-exa-molgen-chargeitem-ebm-22"}},{"fullUrl":"https://www.medizininformatik-initiative.de/fhir/mii-exa-molgen-chargeitem-ebm-23","resource":{"resourceType":"ChargeItem","id":"mii-exa-molgen-chargeitem-ebm-23","meta":{"profile":["http://fhir.de/StructureDefinition/chargeitem-de-ebm"]},"status":"billable","code":{"coding":[{"system":"https://fhir.kbv.de/NamingSystem/KBV_NS_Base_EBM","code":"11302","display":"Zuschlag für Gemeinkosten und die wissenschaftliche ärztliche Beurteilung und Befundung komplexer genetischer Analysen im individuellen klinischen Kontext bei seltenen Erkrankungen"}]},"subject":{"reference":"Patient/mii-exa-molgen-patient-2"},"quantity":{"value":1}},"request":{"method":"PUT","url":"ChargeItem/mii-exa-molgen-chargeitem-ebm-23"}},{"fullUrl":"https://www.medizininformatik-initiative.de/fhir/mii-exa-molgen-chargeitem-ebm-24","resource":{"resourceType":"ChargeItem","id":"mii-exa-molgen-chargeitem-ebm-24","meta":{"profile":["http://fhir.de/StructureDefinition/chargeitem-de-ebm"]},"status":"billable","code":{"coding":[{"system":"https://fhir.kbv.de/NamingSystem/KBV_NS_Base_EBM","code":"11301","display":"Grundpauschale humangenetische in-vitro-Diagnostik bei Probeneinsendung"}]},"subject":{"reference":"Patient/mii-exa-molgen-patient-2"},"quantity":{"value":1}},"request":{"method":"PUT","url":"ChargeItem/mii-exa-molgen-chargeitem-ebm-24"}},{"fullUrl":"https://www.medizininformatik-initiative.de/fhir/mii-exa-molgen-specimen-2","resource":{"resourceType":"Specimen","id":"mii-exa-molgen-specimen-2","meta":{"profile":["https://www.medizininformatik-initiative.de/fhir/ext/modul-biobank/StructureDefinition/SpecimenCore"]},"identifier":[{"system":"https://www.charite.de/fhir/sid/bioproben","value":"specimen_02"}],"status":"available","type":{"coding":[{"system":"http://snomed.info/sct","code":"445295009","display":"Blood specimen with edetic acid (specimen)"}]},"subject":{"reference":"Patient/mii-exa-molgen-patient-2"},"receivedTime":"2021-11-24","collection":{"collectedDateTime":"2021-11-23"}},"request":{"method":"PUT","url":"Specimen/mii-exa-molgen-specimen-2"}},{"fullUrl":"https://www.medizininformatik-initiative.de/fhir/mii-exa-molgen-device-sequencer-2","resource":{"resourceType":"Device","id":"mii-exa-molgen-device-sequencer-2","status":"active","manufacturer":"Illumina","deviceName":[{"name":"NovaSeq 6000-Sequencer","type":"manufacturer-name"}]},"request":{"method":"PUT","url":"Device/mii-exa-molgen-device-sequencer-2"}},{"fullUrl":"https://www.medizininformatik-initiative.de/fhir/mii-exa-molgen-diagnostische-implikation-2","resource":{"resourceType":"Observation","id":"mii-exa-molgen-diagnostische-implikation-2","meta":{"profile":["https://www.medizininformatik-initiative.de/fhir/ext/modul-molgen/StructureDefinition/diagnostische-implikation","http://hl7.org/fhir/uv/genomics-reporting/StructureDefinition/diagnostic-implication"]},"extension":[{"url":"http://hl7.org/fhir/uv/genomics-reporting/StructureDefinition/genomics-artifact","valueRelatedArtifact":{"type":"citation","citation":"Richards et al., Genet Med. 2015; 17:405-24","url":"https://doi.org/10.1038/gim.2015.30"}}],"status":"final","category":[{"coding":[{"system":"http://terminology.hl7.org/CodeSystem/observation-category","code":"laboratory","display":"Laboratory"}]}],"code":{"coding":[{"system":"http://hl7.org/fhir/uv/genomics-reporting/CodeSystem/tbd-codes-cs","code":"diagnostic-implication","display":"Diagnostische Implikation"}]},"subject":{"reference":"Patient/mii-exa-molgen-patient-2"},"performer":[{"reference":"Practitioner/mii-exa-molgen-practitioner-lab"}],"derivedFrom":[{"reference":"Observation/mii-exa-molgen-variante-2"}],"component":[{"code":{"coding":[{"system":"http://hl7.org/fhir/uv/genomics-reporting/CodeSystem/tbd-codes-cs","code":"conclusion-string"}]},"valueString":"Nachweis einer pathogenen Variante im NIPBL-Gen in heterozygoter Form."},{"code":{"coding":[{"system":"http://loinc.org","code":"53037-8","display":"Genetic variation clinical significance [Imp]"}]},"valueCodeableConcept":{"coding":[{"system":"http://loinc.org","code":"LA6668-3","display":"Pathogenic"}]}},{"code":{"coding":[{"system":"http://hl7.org/fhir/uv/genomics-reporting/CodeSystem/tbd-codes-cs","code":"condition-inheritance"}]},"valueCodeableConcept":{"coding":[{"system":"http://human-phenotype-ontology.org","code":"HP:0000006","display":"Autosomal dominant inheritance"}]}},{"code":{"coding":[{"system":"http://loinc.org","code":"81259-4","display":"Associated phenotype"}]},"valueCodeableConcept":{"coding":[{"system":"http://snomed.info/sct","code":"40354009","display":"De Lange syndrome (disorder)"}]}}]},"request":{"method":"PUT","url":"Observation/mii-exa-molgen-diagnostische-implikation-2"}},{"fullUrl":"https://www.medizininformatik-initiative.de/fhir/mii-exa-molgen-variante-2","resource":{"resourceType":"Observation","id":"mii-exa-molgen-variante-2","meta":{"profile":["https://www.medizininformatik-initiative.de/fhir/ext/modul-molgen/StructureDefinition/variante","http://hl7.org/fhir/uv/genomics-reporting/StructureDefinition/variant"]},"basedOn":[{"reference":"ServiceRequest/mii-exa-molgen-anforderung-2"}],"status":"final","category":[{"coding":[{"system":"http://terminology.hl7.org/CodeSystem/observation-category","code":"laboratory","display":"Laboratory"}]}],"code":{"coding":[{"system":"http://loinc.org","code":"69548-6","display":"Genetic variant assessment"}]},"subject":{"reference":"Patient/mii-exa-molgen-patient-2"},"valueCodeableConcept":{"coding":[{"system":"http://loinc.org","code":"LA9633-4","display":"Present"}]},"method":{"coding":[{"system":"http://loinc.org","code":"LA26398-0","display":"Sequencing"},{"system":"http://loinc.org","code":"86206-0","display":"Whole genome sequence analysis in Blood or Tissue by Molecular genetics method"}]},"specimen":{"reference":"Specimen/mii-exa-molgen-specimen-2"},"device":{"reference":"Device/mii-exa-molgen-device-sequencer-2"},"component":[{"code":{"coding":[{"system":"http://loinc.org","code":"48018-6","display":"Gene studied [ID]"}]},"valueCodeableConcept":{"coding":[{"system":"http://www.genenames.org/geneId","code":"HGNC:28862","display":"NIPBL"}]}},{"code":{"coding":[{"system":"http://loinc.org","code":"51958-7"}]},"valueCodeableConcept":{"coding":[{"system":"http://www.ncbi.nlm.nih.gov/refseq","code":"NM_133433.4"}]}},{"code":{"coding":[{"system":"http://loinc.org","code":"47999-8","display":"DNA region name [Identifier]"}]},"valueString":"Exon #10"},{"code":{"coding":[{"system":"http://loinc.org","code":"48004-6","display":"DNA change (c.HGVS)"}]},"valueCodeableConcept":{"coding":[{"system":"http://varnomen.hgvs.org","code":"NM_133433.4:c.2207del"}]}},{"code":{"coding":[{"system":"http://loinc.org","code":"48005-3","display":"Amino acid change (pHGVS)"}]},"valueCodeableConcept":{"coding":[{"system":"http://varnomen.hgvs.org","code":"p.(Pro736Glnfs*58)"}]}},{"code":{"coding":[{"system":"http://loinc.org","code":"53034-5","display":"Allelic state"}]},"valueCodeableConcept":{"coding":[{"system":"http://loinc.org","code":"LA6706-1","display":"Heterozygous"}]}},{"code":{"coding":[{"system":"http://loinc.org","code":"48019-4","display":"DNA change type"}]},"valueCodeableConcept":{"coding":[{"system":"http://sequenceontology.org","code":"SO:0000159","display":"deletion"}]}},{"code":{"coding":[{"system":"http://loinc.org","code":"48006-1","display":"Amino acid change [Type]"}]},"valueCodeableConcept":{"coding":[{"system":"http://loinc.org","code":"LA6694-9","display":"Frameshift"}]}},{"code":{"coding":[{"system":"http://loinc.org","code":"48001-2","display":"Cytogenetic (chromosome) location"}]},"valueCodeableConcept":{"coding":[{"system":"urn:oid:2.16.840.1.113883.6.335","code":"5p13.2"}]}},{"code":{"coding":[{"system":"http://loinc.org","code":"81252-9","display":"Discrete genetic variant"}]},"valueCodeableConcept":{"coding":[{"system":"http://www.ncbi.nlm.nih.gov/clinvar","code":"1076298"},{"system":"http://www.ncbi.nlm.nih.gov/clinvar","code":"VCV001076298.1"}]}}]},"request":{"method":"PUT","url":"Observation/mii-exa-molgen-variante-2"}},{"fullUrl":"https://www.medizininformatik-initiative.de/fhir/mii-exa-molgen-untersuchte-region-2-nipbl","resource":{"resourceType":"Observation","id":"mii-exa-molgen-untersuchte-region-2-nipbl","meta":{"profile":["https://www.medizininformatik-initiative.de/fhir/ext/modul-molgen/StructureDefinition/untersuchte-region","http://hl7.org/fhir/uv/genomics-reporting/StructureDefinition/region-studied"]},"status":"final","category":[{"coding":[{"system":"http://terminology.hl7.org/CodeSystem/observation-category","code":"laboratory","display":"Laboratory"}]}],"code":{"coding":[{"system":"http://loinc.org","code":"53041-0","display":"DNA region of interest panel"}]},"subject":{"reference":"Patient/mii-exa-molgen-patient-2"},"performer":[{"reference":"Practitioner/mii-exa-molgen-practitioner-lab"}],"method":{"coding":[{"system":"http://loinc.org","code":"LA26398-0","display":"Sequencing"}]},"specimen":{"reference":"Specimen/mii-exa-molgen-specimen-2"},"device":{"reference":"Device/mii-exa-molgen-device-sequencer-2"},"component":[{"code":{"coding":[{"system":"http://loinc.org","code":"48018-6","display":"Gene studied [ID]"}]},"valueCodeableConcept":{"coding":[{"system":"http://www.genenames.org/geneId","code":"HGNC:28862","display":"NIPBL"}]}},{"code":{"coding":[{"system":"http://loinc.org","code":"81293-3","display":"Description of ranges of DNA sequences examined"}]},"valueString":"Analyse aller kodierenden Exons der zu untersuchenden Gene einschließlich flankierender intronischer Regionen (mindestens von -3 bis +8)."},{"code":{"coding":[{"system":"http://loinc.org","code":"48013-7","display":"Genomic reference sequence [ID]"}]},"valueCodeableConcept":{"coding":[{"system":"http://www.ncbi.nlm.nih.gov/refseq","code":"NM_133433.4"}]}}]},"request":{"method":"PUT","url":"Observation/mii-exa-molgen-untersuchte-region-2-nipbl"}},{"fullUrl":"https://www.medizininformatik-initiative.de/fhir/mii-exa-molgen-untersuchte-region-2-hdac8","resource":{"resourceType":"Observation","id":"mii-exa-molgen-untersuchte-region-2-hdac8","meta":{"profile":["https://www.medizininformatik-initiative.de/fhir/ext/modul-molgen/StructureDefinition/untersuchte-region","http://hl7.org/fhir/uv/genomics-reporting/StructureDefinition/region-studied"]},"status":"final","category":[{"coding":[{"system":"http://terminology.hl7.org/CodeSystem/observation-category","code":"laboratory","display":"Laboratory"}]}],"code":{"coding":[{"system":"http://loinc.org","code":"53041-0","display":"DNA region of interest panel"}]},"subject":{"reference":"Patient/mii-exa-molgen-patient-2"},"performer":[{"reference":"Practitioner/mii-exa-molgen-practitioner-lab"}],"method":{"coding":[{"system":"http://loinc.org","code":"LA26398-0","display":"Sequencing"}]},"specimen":{"reference":"Specimen/mii-exa-molgen-specimen-2"},"device":{"reference":"Device/mii-exa-molgen-device-sequencer-2"},"component":[{"code":{"coding":[{"system":"http://hl7.org/fhir/uv/genomics-reporting/CodeSystem/tbd-codes-cs","code":"conclusion-string"}]},"valueString":"Keine pathogene Variante identifiziert."},{"code":{"coding":[{"system":"http://loinc.org","code":"48018-6","display":"Gene studied [ID]"}]},"valueCodeableConcept":{"coding":[{"system":"http://www.genenames.org/geneId","code":"HGNC:13315","display":"HDAC8"}]}},{"code":{"coding":[{"system":"http://loinc.org","code":"81293-3","display":"Description of ranges of DNA sequences examined"}]},"valueString":"Analyse aller kodierenden Exons der zu untersuchenden Gene einschließlich flankierender intronischer Regionen (mindestens von -3 bis +8)."},{"code":{"coding":[{"system":"http://loinc.org","code":"48013-7","display":"Genomic reference sequence [ID]"}]},"valueCodeableConcept":{"coding":[{"system":"http://www.ncbi.nlm.nih.gov/refseq","code":"NM_018486.2"}]}}]},"request":{"method":"PUT","url":"Observation/mii-exa-molgen-untersuchte-region-2-hdac8"}},{"fullUrl":"https://www.medizininformatik-initiative.de/fhir/mii-exa-molgen-untersuchte-region-2-rad21","resource":{"resourceType":"Observation","id":"mii-exa-molgen-untersuchte-region-2-rad21","meta":{"profile":["https://www.medizininformatik-initiative.de/fhir/ext/modul-molgen/StructureDefinition/untersuchte-region","http://hl7.org/fhir/uv/genomics-reporting/StructureDefinition/region-studied"]},"status":"final","category":[{"coding":[{"system":"http://terminology.hl7.org/CodeSystem/observation-category","code":"laboratory","display":"Laboratory"}]}],"code":{"coding":[{"system":"http://loinc.org","code":"53041-0","display":"DNA region of interest panel"}]},"subject":{"reference":"Patient/mii-exa-molgen-patient-2"},"performer":[{"reference":"Practitioner/mii-exa-molgen-practitioner-lab"}],"method":{"coding":[{"system":"http://loinc.org","code":"LA26398-0","display":"Sequencing"}]},"specimen":{"reference":"Specimen/mii-exa-molgen-specimen-2"},"device":{"reference":"Device/mii-exa-molgen-device-sequencer-2"},"component":[{"code":{"coding":[{"system":"http://hl7.org/fhir/uv/genomics-reporting/CodeSystem/tbd-codes-cs","code":"conclusion-string"}]},"valueString":"Keine pathogene Variante identifiziert."},{"code":{"coding":[{"system":"http://loinc.org","code":"48018-6","display":"Gene studied [ID]"}]},"valueCodeableConcept":{"coding":[{"system":"http://www.genenames.org/geneId","code":"HGNC:9811","display":"RAD21"}]}},{"code":{"coding":[{"system":"http://loinc.org","code":"81293-3","display":"Description of ranges of DNA sequences examined"}]},"valueString":"Analyse aller kodierenden Exons der zu untersuchenden Gene einschließlich flankierender intronischer Regionen (mindestens von -3 bis +8)."},{"code":{"coding":[{"system":"http://loinc.org","code":"48013-7","display":"Genomic reference sequence [ID]"}]},"valueCodeableConcept":{"coding":[{"system":"http://www.ncbi.nlm.nih.gov/refseq","code":"NM_006265.2"}]}}]},"request":{"method":"PUT","url":"Observation/mii-exa-molgen-untersuchte-region-2-rad21"}},{"fullUrl":"https://www.medizininformatik-initiative.de/fhir/mii-exa-molgen-untersuchte-region-2-smc1a","resource":{"resourceType":"Observation","id":"mii-exa-molgen-untersuchte-region-2-smc1a","meta":{"profile":["https://www.medizininformatik-initiative.de/fhir/ext/modul-molgen/StructureDefinition/untersuchte-region","http://hl7.org/fhir/uv/genomics-reporting/StructureDefinition/region-studied"]},"status":"final","category":[{"coding":[{"system":"http://terminology.hl7.org/CodeSystem/observation-category","code":"laboratory","display":"Laboratory"}]}],"code":{"coding":[{"system":"http://loinc.org","code":"53041-0","display":"DNA region of interest panel"}]},"subject":{"reference":"Patient/mii-exa-molgen-patient-2"},"performer":[{"reference":"Practitioner/mii-exa-molgen-practitioner-lab"}],"method":{"coding":[{"system":"http://loinc.org","code":"LA26398-0","display":"Sequencing"}]},"specimen":{"reference":"Specimen/mii-exa-molgen-specimen-2"},"device":{"reference":"Device/mii-exa-molgen-device-sequencer-2"},"component":[{"code":{"coding":[{"system":"http://hl7.org/fhir/uv/genomics-reporting/CodeSystem/tbd-codes-cs","code":"conclusion-string"}]},"valueString":"Keine pathogene Variante identifiziert."},{"code":{"coding":[{"system":"http://loinc.org","code":"48018-6","display":"Gene studied [ID]"}]},"valueCodeableConcept":{"coding":[{"system":"http://www.genenames.org/geneId","code":"HGNC:11111","display":"SMC1A"}]}},{"code":{"coding":[{"system":"http://loinc.org","code":"81293-3","display":"Description of ranges of DNA sequences examined"}]},"valueString":"Analyse aller kodierenden Exons der zu untersuchenden Gene einschließlich flankierender intronischer Regionen (mindestens von -3 bis +8)."},{"code":{"coding":[{"system":"http://loinc.org","code":"48013-7","display":"Genomic reference sequence [ID]"}]},"valueCodeableConcept":{"coding":[{"system":"http://www.ncbi.nlm.nih.gov/refseq","code":"NM_006306.3"}]}}]},"request":{"method":"PUT","url":"Observation/mii-exa-molgen-untersuchte-region-2-smc1a"}},{"fullUrl":"https://www.medizininformatik-initiative.de/fhir/mii-exa-molgen-untersuchte-region-2-smc3","resource":{"resourceType":"Observation","id":"mii-exa-molgen-untersuchte-region-2-smc3","meta":{"profile":["https://www.medizininformatik-initiative.de/fhir/ext/modul-molgen/StructureDefinition/untersuchte-region","http://hl7.org/fhir/uv/genomics-reporting/StructureDefinition/region-studied"]},"status":"final","category":[{"coding":[{"system":"http://terminology.hl7.org/CodeSystem/observation-category","code":"laboratory","display":"Laboratory"}]}],"code":{"coding":[{"system":"http://loinc.org","code":"53041-0","display":"DNA region of interest panel"}]},"subject":{"reference":"Patient/mii-exa-molgen-patient-2"},"performer":[{"reference":"Practitioner/mii-exa-molgen-practitioner-lab"}],"method":{"coding":[{"system":"http://loinc.org","code":"LA26398-0","display":"Sequencing"}]},"specimen":{"reference":"Specimen/mii-exa-molgen-specimen-2"},"device":{"reference":"Device/mii-exa-molgen-device-sequencer-2"},"component":[{"code":{"coding":[{"system":"http://hl7.org/fhir/uv/genomics-reporting/CodeSystem/tbd-codes-cs","code":"conclusion-string"}]},"valueString":"Keine pathogene Variante identifiziert."},{"code":{"coding":[{"system":"http://loinc.org","code":"48018-6","display":"Gene studied [ID]"}]},"valueCodeableConcept":{"coding":[{"system":"http://www.genenames.org/geneId","code":"HGNC:2468","display":"SMC3"}]}},{"code":{"coding":[{"system":"http://loinc.org","code":"81293-3","display":"Description of ranges of DNA sequences examined"}]},"valueString":"Analyse aller kodierenden Exons der zu untersuchenden Gene einschließlich flankierender intronischer Regionen (mindestens von -3 bis +8)."},{"code":{"coding":[{"system":"http://loinc.org","code":"48013-7","display":"Genomic reference sequence [ID]"}]},"valueCodeableConcept":{"coding":[{"system":"http://www.ncbi.nlm.nih.gov/refseq","code":"NM_005445.3"}]}}]},"request":{"method":"PUT","url":"Observation/mii-exa-molgen-untersuchte-region-2-smc3"}},{"fullUrl":"https://www.medizininformatik-initiative.de/fhir/mii-exa-molgen-untersuchte-region-2-tp63","resource":{"resourceType":"Observation","id":"mii-exa-molgen-untersuchte-region-2-tp63","meta":{"profile":["https://www.medizininformatik-initiative.de/fhir/ext/modul-molgen/StructureDefinition/untersuchte-region","http://hl7.org/fhir/uv/genomics-reporting/StructureDefinition/region-studied"]},"status":"final","category":[{"coding":[{"system":"http://terminology.hl7.org/CodeSystem/observation-category","code":"laboratory","display":"Laboratory"}]}],"code":{"coding":[{"system":"http://loinc.org","code":"53041-0","display":"DNA region of interest panel"}]},"subject":{"reference":"Patient/mii-exa-molgen-patient-2"},"performer":[{"reference":"Practitioner/mii-exa-molgen-practitioner-lab"}],"method":{"coding":[{"system":"http://loinc.org","code":"LA26398-0","display":"Sequencing"}]},"specimen":{"reference":"Specimen/mii-exa-molgen-specimen-2"},"device":{"reference":"Device/mii-exa-molgen-device-sequencer-2"},"component":[{"code":{"coding":[{"system":"http://hl7.org/fhir/uv/genomics-reporting/CodeSystem/tbd-codes-cs","code":"conclusion-string"}]},"valueString":"Keine pathogene Variante identifiziert."},{"code":{"coding":[{"system":"http://loinc.org","code":"48018-6","display":"Gene studied [ID]"}]},"valueCodeableConcept":{"coding":[{"system":"http://www.genenames.org/geneId","code":"HGNC:15979","display":"TP63"}]}},{"code":{"coding":[{"system":"http://loinc.org","code":"81293-3","display":"Description of ranges of DNA sequences examined"}]},"valueString":"Analyse aller kodierenden Exons der zu untersuchenden Gene einschließlich flankierender intronischer Regionen (mindestens von -3 bis +8)."},{"code":{"coding":[{"system":"http://loinc.org","code":"48013-7","display":"Genomic reference sequence [ID]"}]},"valueCodeableConcept":{"coding":[{"system":"http://www.ncbi.nlm.nih.gov/refseq","code":"NM_003722.4"}]}}]},"request":{"method":"PUT","url":"Observation/mii-exa-molgen-untersuchte-region-2-tp63"}},{"fullUrl":"https://www.medizininformatik-initiative.de/fhir/mii-exa-molgen-bundle-befund-2-nipbl-condition-lab","resource":{"resourceType":"Condition","id":"mii-exa-molgen-bundle-befund-2-nipbl-condition-lab","meta":{"profile":["https://www.medizininformatik-initiative.de/fhir/core/modul-diagnose/StructureDefinition/Diagnose"]},"clinicalStatus":{"coding":[{"system":"http://terminology.hl7.org/CodeSystem/condition-clinical","code":"active"}]},"verificationStatus":{"coding":[{"system":"http://terminology.hl7.org/CodeSystem/condition-ver-status","code":"provisional"}]},"code":{"coding":[{"extension":[{"url":"http://fhir.de/StructureDefinition/icd-10-gm-diagnosesicherheit","valueCoding":{"system":"https://fhir.kbv.de/CodeSystem/KBV_CS_SFHIR_ICD_DIAGNOSESICHERHEIT","code":"V"}}],"system":"http://fhir.de/CodeSystem/bfarm/icd-10-gm","version":"2021","code":"Q87.1","display":"Angeborene Fehlbildungssyndrome, die vorwiegend mit Kleinwuchs einhergehen"},{"system":"http://www.omim.org","code":"122470","display":"Cornelia de Lange syndrome 1"}]},"subject":{"reference":"Patient/mii-exa-molgen-patient-2"},"recordedDate":"2022-03-05T10:49:00+01:00","recorder":{"reference":"Practitioner/mii-exa-molgen-practitioner-lab"},"asserter":{"reference":"Practitioner/mii-exa-molgen-practitioner-lab"}},"request":{"method":"PUT","url":"Condition/mii-exa-molgen-bundle-befund-2-nipbl-condition-lab"}}]}