{"resourceType":"Bundle","id":"mii-exa-befund-bundle-befund-srcc","type":"transaction","timestamp":"2022-12-16T10:09:00+01:00","entry":[{"fullUrl":"https://www.medizininformatik-initiative.de/fhir/mii-exa-molgen-patient-srcc","resource":{"resourceType":"Patient","id":"mii-exa-molgen-patient-srcc","identifier":[{"use":"usual","type":{"coding":[{"system":"http://terminology.hl7.org/CodeSystem/v3-ObservationValue","code":"PSEUDED"}]},"system":"https://www.charite.de/fhir/sid/pseudonym","value":"66036015"}],"gender":"male","birthDate":"1986-01","deceasedBoolean":false,"address":[{"type":"both","postalCode":"10","country":"DE"}]},"request":{"method":"PUT","url":"Patient/mii-exa-molgen-patient-srcc"}},{"fullUrl":"https://www.medizininformatik-initiative.de/fhir/mii-exa-molgen-practitioner-lab","resource":{"resourceType":"Practitioner","id":"mii-exa-molgen-practitioner-lab","active":true,"name":[{"use":"official","text":"Dr. Daniel Schmidt","family":"Schmidt","given":["Daniel"],"prefix":["Dr."]}]},"request":{"method":"PUT","url":"Practitioner/mii-exa-molgen-practitioner-lab"}},{"fullUrl":"https://www.medizininformatik-initiative.de/fhir/mii-exa-molgen-practitioner-physician","resource":{"resourceType":"Practitioner","id":"mii-exa-molgen-practitioner-physician","active":true,"name":[{"use":"official","text":"Dr. Linda Rubens","family":"Rubens","given":["Linda"],"prefix":["Dr."]}]},"request":{"method":"PUT","url":"Practitioner/mii-exa-molgen-practitioner-physician"}},{"fullUrl":"https://www.medizininformatik-initiative.de/fhir/mii-exa-molgen-specimen-srcc","resource":{"resourceType":"Specimen","id":"mii-exa-molgen-specimen-srcc","meta":{"profile":["https://www.medizininformatik-initiative.de/fhir/ext/modul-biobank/StructureDefinition/SpecimenCore"]},"identifier":[{"system":"https://www.charite.de/fhir/sid/bioproben","value":"00070024"}],"status":"available","type":{"coding":[{"system":"http://snomed.info/sct","code":"445295009","display":"Blood specimen with edetic acid (specimen)"}]},"subject":{"reference":"Patient/mii-exa-molgen-patient-srcc"},"receivedTime":"2022-11-30","collection":{"collectedDateTime":"2022-11-30"}},"request":{"method":"PUT","url":"Specimen/mii-exa-molgen-specimen-srcc"}},{"fullUrl":"https://www.medizininformatik-initiative.de/fhir/mii-exa-molgen-specimen-srcc-2","resource":{"resourceType":"Specimen","id":"mii-exa-molgen-specimen-srcc-2","meta":{"profile":["https://www.medizininformatik-initiative.de/fhir/ext/modul-biobank/StructureDefinition/SpecimenCore"]},"identifier":[{"system":"https://www.charite.de/fhir/sid/bioproben","value":"00070025"}],"status":"available","type":{"coding":[{"system":"http://snomed.info/sct","code":"445295009","display":"Blood specimen with edetic acid (specimen)"}]},"subject":{"reference":"Patient/mii-exa-molgen-patient-srcc"},"receivedTime":"2022-11-30","collection":{"collectedDateTime":"2022-11-30"}},"request":{"method":"PUT","url":"Specimen/mii-exa-molgen-specimen-srcc-2"}},{"fullUrl":"https://www.medizininformatik-initiative.de/fhir/mii-exa-molgen-molekulargenetischer-befundbericht-srcc","resource":{"resourceType":"DiagnosticReport","id":"mii-exa-molgen-molekulargenetischer-befundbericht-srcc","meta":{"profile":["https://www.medizininformatik-initiative.de/fhir/ext/modul-molgen/StructureDefinition/molekulargenetischer-befundbericht","http://hl7.org/fhir/uv/genomics-reporting/StructureDefinition/genomics-report"]},"extension":[{"url":"http://hl7.org/fhir/StructureDefinition/workflow-supportingInfo","valueReference":{"reference":"FamilyMemberHistory/mii-exa-molgen-family-member-history-srcc"}}],"basedOn":[{"reference":"ServiceRequest/mii-exa-molgen-anforderung-srcc"}],"status":"final","category":[{"coding":[{"system":"http://terminology.hl7.org/CodeSystem/v2-0074","code":"GE","display":"Genetics"}]}],"code":{"coding":[{"system":"http://loinc.org","code":"51969-4","display":"Genetic analysis report"}]},"subject":{"reference":"Patient/mii-exa-molgen-patient-srcc"},"performer":[{"reference":"Practitioner/mii-exa-molgen-practitioner-lab"}],"specimen":[{"reference":"Specimen/mii-exa-molgen-specimen-srcc"},{"reference":"Specimen/mii-exa-molgen-specimen-srcc-2"}],"result":[{"reference":"Observation/mii-exa-molgen-diagnostische-implikation-srcc-ctnna1"},{"reference":"Observation/mii-exa-molgen-variante-srcc-ctnna1"},{"reference":"Observation/mii-exa-molgen-untersuchte-region-srcc-apc"},{"reference":"Observation/mii-exa-molgen-untersuchte-region-srcc-atm"},{"reference":"Observation/mii-exa-molgen-untersuchte-region-srcc-brca1"},{"reference":"Observation/mii-exa-molgen-untersuchte-region-srcc-brca2"},{"reference":"Observation/mii-exa-molgen-untersuchte-region-srcc-cdh1"},{"reference":"Observation/mii-exa-molgen-untersuchte-region-srcc-mlh1"},{"reference":"Observation/mii-exa-molgen-untersuchte-region-srcc-msh2"},{"reference":"Observation/mii-exa-molgen-untersuchte-region-srcc-msh3"},{"reference":"Observation/mii-exa-molgen-untersuchte-region-srcc-msh6"},{"reference":"Observation/mii-exa-molgen-untersuchte-region-srcc-mutyh"},{"reference":"Observation/mii-exa-molgen-untersuchte-region-srcc-nthl1"},{"reference":"Observation/mii-exa-molgen-untersuchte-region-srcc-pms2"},{"reference":"Observation/mii-exa-molgen-untersuchte-region-srcc-pold1"},{"reference":"Observation/mii-exa-molgen-untersuchte-region-srcc-pole"},{"reference":"Observation/mii-exa-molgen-untersuchte-region-srcc-smad4"},{"reference":"Observation/mii-exa-molgen-untersuchte-region-srcc-stk11"},{"reference":"Observation/mii-exa-molgen-untersuchte-region-srcc-tp53"},{"reference":"Observation/mii-exa-molgen-untersuchte-region-srcc-ctnna1"}],"conclusion":"Nachweis der pathogenen Variante im CTNNA1-Gen."},"request":{"method":"PUT","url":"DiagnosticReport/mii-exa-molgen-molekulargenetischer-befundbericht-srcc"}},{"fullUrl":"https://www.medizininformatik-initiative.de/fhir/mii-exa-molgen-anforderung-srcc","resource":{"resourceType":"ServiceRequest","id":"mii-exa-molgen-anforderung-srcc","meta":{"profile":["https://www.medizininformatik-initiative.de/fhir/ext/modul-molgen/StructureDefinition/anforderung-genetischer-test"]},"identifier":[{"system":"https://www.charite.de/fhir/auftragsnummern","value":"7B369EB0"}],"status":"active","intent":"order","category":[{"coding":[{"system":"http://snomed.info/sct","code":"108252007","display":"Laboratory procedure (procedure)"}]}],"code":{"coding":[{"system":"http://snomed.info/sct","code":"405825005","display":"Molecular genetic test (procedure)"}],"text":"Molekulargenetische Untersuchung (Stufendiagnostik) der relevanten Gene"},"subject":{"reference":"Patient/mii-exa-molgen-patient-srcc"},"authoredOn":"2022-11-30","requester":{"reference":"Practitioner/mii-exa-molgen-practitioner-physician"},"reasonCode":[{"coding":[{"system":"http://snomed.info/sct","code":"87737001","display":"Signet ring cell carcinoma (morphologic abnormality)"},{"system":"http://fhir.de/CodeSystem/bfarm/icd-10-gm","version":"2022","code":"C16.9","display":"Bösartige Neubildung des Magens, nicht näher bezeichnet"}],"text":"Eigenanamnese: Siegelringkarzinom des Magens, diffus wachsend"},{"coding":[{"system":"http://snomed.info/sct","code":"429740004","display":"Family history of malignant neoplasm of breast (situation)"}],"text":"Mutter an Brustkrebs verstorben"}],"specimen":[{"reference":"Specimen/mii-exa-molgen-specimen-srcc"}]},"request":{"method":"PUT","url":"ServiceRequest/mii-exa-molgen-anforderung-srcc"}},{"fullUrl":"https://www.medizininformatik-initiative.de/fhir/mii-exa-molgen-device-sequencer","resource":{"resourceType":"Device","id":"mii-exa-molgen-device-sequencer","status":"active","manufacturer":"Illumina","deviceName":[{"name":"MiSeq","type":"manufacturer-name"}]},"request":{"method":"PUT","url":"Device/mii-exa-molgen-device-sequencer"}},{"fullUrl":"https://www.medizininformatik-initiative.de/fhir/mii-exa-molgen-variante-srcc-ctnna1","resource":{"resourceType":"Observation","id":"mii-exa-molgen-variante-srcc-ctnna1","meta":{"profile":["https://www.medizininformatik-initiative.de/fhir/ext/modul-molgen/StructureDefinition/variante","http://hl7.org/fhir/uv/genomics-reporting/StructureDefinition/variant"]},"basedOn":[{"reference":"ServiceRequest/mii-exa-molgen-anforderung-srcc"}],"status":"final","category":[{"coding":[{"system":"http://terminology.hl7.org/CodeSystem/observation-category","code":"laboratory","display":"Laboratory"}]}],"code":{"coding":[{"system":"http://loinc.org","code":"69548-6","display":"Genetic variant assessment"}]},"subject":{"reference":"Patient/mii-exa-molgen-patient-srcc"},"valueCodeableConcept":{"coding":[{"system":"http://loinc.org","code":"LA9633-4","display":"Present"}]},"method":{"coding":[{"system":"http://loinc.org","code":"LA26398-0","display":"Sequencing"}]},"specimen":{"reference":"Specimen/mii-exa-molgen-specimen-srcc"},"device":{"reference":"Device/mii-exa-molgen-device-sequencer"},"component":[{"code":{"coding":[{"system":"http://loinc.org","code":"48018-6"}]},"valueCodeableConcept":{"coding":[{"system":"http://www.genenames.org/geneId","code":"HGNC:2509","display":"CTNNA1"}]}},{"code":{"coding":[{"system":"http://loinc.org","code":"51958-7"}]},"valueCodeableConcept":{"coding":[{"system":"http://www.ncbi.nlm.nih.gov/refseq","code":"NM_001903.5"}]}},{"code":{"coding":[{"system":"http://loinc.org","code":"48004-6"}]},"valueCodeableConcept":{"coding":[{"system":"http://varnomen.hgvs.org","code":"NM_001903.5:c.1030del"}]}},{"code":{"coding":[{"system":"http://loinc.org","code":"81290-9"}]},"valueCodeableConcept":{"coding":[{"system":"http://varnomen.hgvs.org","code":"NC_000005.9:g.138163372del"}]}},{"code":{"coding":[{"system":"http://loinc.org","code":"48013-7"}]},"valueCodeableConcept":{"coding":[{"system":"http://www.ncbi.nlm.nih.gov/refseq","code":"NC_000005.9"}]}},{"code":{"coding":[{"system":"http://loinc.org","code":"48005-3"}]},"valueCodeableConcept":{"coding":[{"system":"http://varnomen.hgvs.org","code":"p.(Leu344CysfsTer25)"}]}},{"code":{"coding":[{"system":"http://loinc.org","code":"53034-5"}]},"valueCodeableConcept":{"coding":[{"system":"http://loinc.org","code":"LA6706-1","display":"Heterozygous"}]}},{"code":{"coding":[{"system":"http://loinc.org","code":"48019-4"}]},"valueCodeableConcept":{"coding":[{"system":"http://sequenceontology.org","code":"SO:0000159","display":"deletion"}]}},{"code":{"coding":[{"system":"http://loinc.org","code":"48006-1"}]},"valueCodeableConcept":{"coding":[{"system":"http://loinc.org","code":"LA6694-9","display":"Frameshift"}]}},{"code":{"coding":[{"system":"http://loinc.org","code":"48001-2"}]},"valueCodeableConcept":{"coding":[{"system":"urn:oid:2.16.840.1.113883.6.335","code":"5q31.2"}]}}]},"request":{"method":"PUT","url":"Observation/mii-exa-molgen-variante-srcc-ctnna1"}},{"fullUrl":"https://www.medizininformatik-initiative.de/fhir/mii-exa-molgen-diagnostische-implikation-srcc-ctnna1","resource":{"resourceType":"Observation","id":"mii-exa-molgen-diagnostische-implikation-srcc-ctnna1","meta":{"profile":["https://www.medizininformatik-initiative.de/fhir/ext/modul-molgen/StructureDefinition/diagnostische-implikation","http://hl7.org/fhir/uv/genomics-reporting/StructureDefinition/diagnostic-implication"]},"extension":[{"url":"http://hl7.org/fhir/uv/genomics-reporting/StructureDefinition/genomics-artifact","valueRelatedArtifact":{"type":"citation","citation":"ClinGen","url":"https://search.clinicalgenome.org/kb/gene-dosage/HGNC:2509"}}],"status":"final","category":[{"coding":[{"system":"http://terminology.hl7.org/CodeSystem/observation-category","code":"laboratory","display":"Laboratory"}]}],"code":{"coding":[{"system":"http://hl7.org/fhir/uv/genomics-reporting/CodeSystem/tbd-codes-cs","code":"diagnostic-implication","display":"Diagnostische Implikation"}]},"subject":{"reference":"Patient/mii-exa-molgen-patient-srcc"},"performer":[{"reference":"Practitioner/mii-exa-molgen-practitioner-lab"}],"derivedFrom":[{"reference":"Observation/mii-exa-molgen-variante-srcc-ctnna1"}],"component":[{"code":{"coding":[{"system":"http://hl7.org/fhir/uv/genomics-reporting/CodeSystem/tbd-codes-cs","code":"conclusion-string"}]},"valueString":"Diese Variante wird nach den ACMG/AMP-Kriterien zusammenfasssend als pathogen bewertet entsprechend IARC Class 5."},{"code":{"coding":[{"system":"http://loinc.org","code":"53037-8"}]},"valueCodeableConcept":{"coding":[{"system":"http://loinc.org","code":"LA6668-3","display":"Pathogenic"}]}},{"code":{"coding":[{"system":"http://hl7.org/fhir/uv/genomics-reporting/CodeSystem/tbd-codes-cs","code":"functional-effect"}]},"valueCodeableConcept":{"coding":[{"system":"http://sequenceontology.org","code":"SO:0002054","display":"loss_of_function_variant"}]}},{"code":{"coding":[{"system":"http://loinc.org","code":"81259-4"}]},"valueCodeableConcept":{"coding":[{"system":"http://human-phenotype-ontology.org","code":"716859000","display":"Hereditary diffuse carcinoma of stomach (disorder)"}]}}]},"request":{"method":"PUT","url":"Observation/mii-exa-molgen-diagnostische-implikation-srcc-ctnna1"}},{"fullUrl":"https://www.medizininformatik-initiative.de/fhir/mii-exa-molgen-untersuchte-region-srcc-apc","resource":{"resourceType":"Observation","id":"mii-exa-molgen-untersuchte-region-srcc-apc","meta":{"profile":["https://www.medizininformatik-initiative.de/fhir/ext/modul-molgen/StructureDefinition/untersuchte-region","http://hl7.org/fhir/uv/genomics-reporting/StructureDefinition/region-studied"]},"status":"final","category":[{"coding":[{"system":"http://terminology.hl7.org/CodeSystem/observation-category","code":"laboratory","display":"Laboratory"}]}],"code":{"coding":[{"system":"http://loinc.org","code":"53041-0","display":"DNA region of interest panel"}]},"subject":{"reference":"Patient/mii-exa-molgen-patient-srcc"},"performer":[{"reference":"Practitioner/mii-exa-molgen-practitioner-lab"}],"method":{"coding":[{"system":"http://loinc.org","code":"LA26398-0","display":"Sequencing"}]},"specimen":{"reference":"Specimen/mii-exa-molgen-specimen-srcc"},"device":{"reference":"Device/mii-exa-molgen-device-sequencer"},"component":[{"code":{"coding":[{"system":"http://loinc.org","code":"48018-6","display":"Gene studied [ID]"}]},"valueCodeableConcept":{"coding":[{"system":"http://www.genenames.org/geneId","code":"HGNC:583","display":"APC"}]}},{"code":{"coding":[{"system":"http://loinc.org","code":"81293-3","display":"Description of ranges of DNA sequences examined"}]},"valueString":"direkte Sequenzierung der codierenden Exons inkl. flankierender intronischer Bereiche"},{"code":{"coding":[{"system":"http://loinc.org","code":"51958-7"}]},"valueCodeableConcept":{"coding":[{"system":"http://www.ncbi.nlm.nih.gov/refseq","code":"NM_000038.4"}]}}]},"request":{"method":"PUT","url":"Observation/mii-exa-molgen-untersuchte-region-srcc-apc"}},{"fullUrl":"https://www.medizininformatik-initiative.de/fhir/mii-exa-molgen-untersuchte-region-srcc-atm","resource":{"resourceType":"Observation","id":"mii-exa-molgen-untersuchte-region-srcc-atm","meta":{"profile":["https://www.medizininformatik-initiative.de/fhir/ext/modul-molgen/StructureDefinition/untersuchte-region","http://hl7.org/fhir/uv/genomics-reporting/StructureDefinition/region-studied"]},"status":"final","category":[{"coding":[{"system":"http://terminology.hl7.org/CodeSystem/observation-category","code":"laboratory","display":"Laboratory"}]}],"code":{"coding":[{"system":"http://loinc.org","code":"53041-0","display":"DNA region of interest panel"}]},"subject":{"reference":"Patient/mii-exa-molgen-patient-srcc"},"performer":[{"reference":"Practitioner/mii-exa-molgen-practitioner-lab"}],"method":{"coding":[{"system":"http://loinc.org","code":"LA26398-0","display":"Sequencing"}]},"specimen":{"reference":"Specimen/mii-exa-molgen-specimen-srcc"},"device":{"reference":"Device/mii-exa-molgen-device-sequencer"},"component":[{"code":{"coding":[{"system":"http://loinc.org","code":"48018-6","display":"Gene studied [ID]"}]},"valueCodeableConcept":{"coding":[{"system":"http://www.genenames.org/geneId","code":"HGNC:795","display":"ATM"}]}},{"code":{"coding":[{"system":"http://loinc.org","code":"81293-3","display":"Description of ranges of DNA sequences examined"}]},"valueString":"direkte Sequenzierung der codierenden Exons inkl. flankierender intronischer Bereiche"},{"code":{"coding":[{"system":"http://loinc.org","code":"51958-7"}]},"valueCodeableConcept":{"coding":[{"system":"http://www.ncbi.nlm.nih.gov/refseq","code":"NM_000051.3"}]}}]},"request":{"method":"PUT","url":"Observation/mii-exa-molgen-untersuchte-region-srcc-atm"}},{"fullUrl":"https://www.medizininformatik-initiative.de/fhir/mii-exa-molgen-untersuchte-region-srcc-brca1","resource":{"resourceType":"Observation","id":"mii-exa-molgen-untersuchte-region-srcc-brca1","meta":{"profile":["https://www.medizininformatik-initiative.de/fhir/ext/modul-molgen/StructureDefinition/untersuchte-region","http://hl7.org/fhir/uv/genomics-reporting/StructureDefinition/region-studied"]},"status":"final","category":[{"coding":[{"system":"http://terminology.hl7.org/CodeSystem/observation-category","code":"laboratory","display":"Laboratory"}]}],"code":{"coding":[{"system":"http://loinc.org","code":"53041-0","display":"DNA region of interest panel"}]},"subject":{"reference":"Patient/mii-exa-molgen-patient-srcc"},"performer":[{"reference":"Practitioner/mii-exa-molgen-practitioner-lab"}],"method":{"coding":[{"system":"http://loinc.org","code":"LA26398-0","display":"Sequencing"}]},"specimen":{"reference":"Specimen/mii-exa-molgen-specimen-srcc"},"device":{"reference":"Device/mii-exa-molgen-device-sequencer"},"component":[{"code":{"coding":[{"system":"http://loinc.org","code":"48018-6","display":"Gene studied [ID]"}]},"valueCodeableConcept":{"coding":[{"system":"http://www.genenames.org/geneId","code":"HGNC:1100","display":"BRCA1"}]}},{"code":{"coding":[{"system":"http://loinc.org","code":"81293-3","display":"Description of ranges of DNA sequences examined"}]},"valueString":"direkte Sequenzierung der codierenden Exons inkl. flankierender intronischer Bereiche"},{"code":{"coding":[{"system":"http://loinc.org","code":"51958-7"}]},"valueCodeableConcept":{"coding":[{"system":"http://www.ncbi.nlm.nih.gov/refseq","code":"NM_007294.3"}]}}]},"request":{"method":"PUT","url":"Observation/mii-exa-molgen-untersuchte-region-srcc-brca1"}},{"fullUrl":"https://www.medizininformatik-initiative.de/fhir/mii-exa-molgen-untersuchte-region-srcc-brca2","resource":{"resourceType":"Observation","id":"mii-exa-molgen-untersuchte-region-srcc-brca2","meta":{"profile":["https://www.medizininformatik-initiative.de/fhir/ext/modul-molgen/StructureDefinition/untersuchte-region","http://hl7.org/fhir/uv/genomics-reporting/StructureDefinition/region-studied"]},"status":"final","category":[{"coding":[{"system":"http://terminology.hl7.org/CodeSystem/observation-category","code":"laboratory","display":"Laboratory"}]}],"code":{"coding":[{"system":"http://loinc.org","code":"53041-0","display":"DNA region of interest panel"}]},"subject":{"reference":"Patient/mii-exa-molgen-patient-srcc"},"performer":[{"reference":"Practitioner/mii-exa-molgen-practitioner-lab"}],"method":{"coding":[{"system":"http://loinc.org","code":"LA26398-0","display":"Sequencing"}]},"specimen":{"reference":"Specimen/mii-exa-molgen-specimen-srcc"},"device":{"reference":"Device/mii-exa-molgen-device-sequencer"},"component":[{"code":{"coding":[{"system":"http://loinc.org","code":"48018-6","display":"Gene studied [ID]"}]},"valueCodeableConcept":{"coding":[{"system":"http://www.genenames.org/geneId","code":"HGNC:1101","display":"BRCA2"}]}},{"code":{"coding":[{"system":"http://loinc.org","code":"81293-3","display":"Description of ranges of DNA sequences examined"}]},"valueString":"direkte Sequenzierung der codierenden Exons inkl. flankierender intronischer Bereiche"},{"code":{"coding":[{"system":"http://loinc.org","code":"51958-7"}]},"valueCodeableConcept":{"coding":[{"system":"http://www.ncbi.nlm.nih.gov/refseq","code":"NM_000059.3"}]}}]},"request":{"method":"PUT","url":"Observation/mii-exa-molgen-untersuchte-region-srcc-brca2"}},{"fullUrl":"https://www.medizininformatik-initiative.de/fhir/mii-exa-molgen-untersuchte-region-srcc-cdh1","resource":{"resourceType":"Observation","id":"mii-exa-molgen-untersuchte-region-srcc-cdh1","meta":{"profile":["https://www.medizininformatik-initiative.de/fhir/ext/modul-molgen/StructureDefinition/untersuchte-region","http://hl7.org/fhir/uv/genomics-reporting/StructureDefinition/region-studied"]},"status":"final","category":[{"coding":[{"system":"http://terminology.hl7.org/CodeSystem/observation-category","code":"laboratory","display":"Laboratory"}]}],"code":{"coding":[{"system":"http://loinc.org","code":"53041-0","display":"DNA region of interest panel"}]},"subject":{"reference":"Patient/mii-exa-molgen-patient-srcc"},"performer":[{"reference":"Practitioner/mii-exa-molgen-practitioner-lab"}],"method":{"coding":[{"system":"http://loinc.org","code":"LA26398-0","display":"Sequencing"}]},"specimen":{"reference":"Specimen/mii-exa-molgen-specimen-srcc"},"device":{"reference":"Device/mii-exa-molgen-device-sequencer"},"component":[{"code":{"coding":[{"system":"http://loinc.org","code":"48018-6","display":"Gene studied [ID]"}]},"valueCodeableConcept":{"coding":[{"system":"http://www.genenames.org/geneId","code":"HGNC:1748","display":"CDH1"}]}},{"code":{"coding":[{"system":"http://loinc.org","code":"81293-3","display":"Description of ranges of DNA sequences examined"}]},"valueString":"direkte Sequenzierung der codierenden Exons inkl. flankierender intronischer Bereiche"},{"code":{"coding":[{"system":"http://loinc.org","code":"51958-7"}]},"valueCodeableConcept":{"coding":[{"system":"http://www.ncbi.nlm.nih.gov/refseq","code":"NM_004360.4"}]}}]},"request":{"method":"PUT","url":"Observation/mii-exa-molgen-untersuchte-region-srcc-cdh1"}},{"fullUrl":"https://www.medizininformatik-initiative.de/fhir/mii-exa-molgen-untersuchte-region-srcc-mlh1","resource":{"resourceType":"Observation","id":"mii-exa-molgen-untersuchte-region-srcc-mlh1","meta":{"profile":["https://www.medizininformatik-initiative.de/fhir/ext/modul-molgen/StructureDefinition/untersuchte-region","http://hl7.org/fhir/uv/genomics-reporting/StructureDefinition/region-studied"]},"status":"final","category":[{"coding":[{"system":"http://terminology.hl7.org/CodeSystem/observation-category","code":"laboratory","display":"Laboratory"}]}],"code":{"coding":[{"system":"http://loinc.org","code":"53041-0","display":"DNA region of interest panel"}]},"subject":{"reference":"Patient/mii-exa-molgen-patient-srcc"},"performer":[{"reference":"Practitioner/mii-exa-molgen-practitioner-lab"}],"method":{"coding":[{"system":"http://loinc.org","code":"LA26398-0","display":"Sequencing"}]},"specimen":{"reference":"Specimen/mii-exa-molgen-specimen-srcc"},"device":{"reference":"Device/mii-exa-molgen-device-sequencer"},"component":[{"code":{"coding":[{"system":"http://loinc.org","code":"48018-6","display":"Gene studied [ID]"}]},"valueCodeableConcept":{"coding":[{"system":"http://www.genenames.org/geneId","code":"HGNC:7127","display":"MLH1"}]}},{"code":{"coding":[{"system":"http://loinc.org","code":"81293-3","display":"Description of ranges of DNA sequences examined"}]},"valueString":"direkte Sequenzierung der codierenden Exons inkl. flankierender intronischer Bereiche"},{"code":{"coding":[{"system":"http://loinc.org","code":"51958-7"}]},"valueCodeableConcept":{"coding":[{"system":"http://www.ncbi.nlm.nih.gov/refseq","code":"NM_000249.3"}]}}]},"request":{"method":"PUT","url":"Observation/mii-exa-molgen-untersuchte-region-srcc-mlh1"}},{"fullUrl":"https://www.medizininformatik-initiative.de/fhir/mii-exa-molgen-untersuchte-region-srcc-msh2","resource":{"resourceType":"Observation","id":"mii-exa-molgen-untersuchte-region-srcc-msh2","meta":{"profile":["https://www.medizininformatik-initiative.de/fhir/ext/modul-molgen/StructureDefinition/untersuchte-region","http://hl7.org/fhir/uv/genomics-reporting/StructureDefinition/region-studied"]},"status":"final","category":[{"coding":[{"system":"http://terminology.hl7.org/CodeSystem/observation-category","code":"laboratory","display":"Laboratory"}]}],"code":{"coding":[{"system":"http://loinc.org","code":"53041-0","display":"DNA region of interest panel"}]},"subject":{"reference":"Patient/mii-exa-molgen-patient-srcc"},"performer":[{"reference":"Practitioner/mii-exa-molgen-practitioner-lab"}],"method":{"coding":[{"system":"http://loinc.org","code":"LA26398-0","display":"Sequencing"}]},"specimen":{"reference":"Specimen/mii-exa-molgen-specimen-srcc"},"device":{"reference":"Device/mii-exa-molgen-device-sequencer"},"component":[{"code":{"coding":[{"system":"http://loinc.org","code":"48018-6","display":"Gene studied [ID]"}]},"valueCodeableConcept":{"coding":[{"system":"http://www.genenames.org/geneId","code":"HGNC:7325","display":"MSH2"}]}},{"code":{"coding":[{"system":"http://loinc.org","code":"81293-3","display":"Description of ranges of DNA sequences examined"}]},"valueString":"direkte Sequenzierung der codierenden Exons inkl. flankierender intronischer Bereiche"},{"code":{"coding":[{"system":"http://loinc.org","code":"51958-7"}]},"valueCodeableConcept":{"coding":[{"system":"http://www.ncbi.nlm.nih.gov/refseq","code":"NM_000251.2"}]}}]},"request":{"method":"PUT","url":"Observation/mii-exa-molgen-untersuchte-region-srcc-msh2"}},{"fullUrl":"https://www.medizininformatik-initiative.de/fhir/mii-exa-molgen-untersuchte-region-srcc-msh3","resource":{"resourceType":"Observation","id":"mii-exa-molgen-untersuchte-region-srcc-msh3","meta":{"profile":["https://www.medizininformatik-initiative.de/fhir/ext/modul-molgen/StructureDefinition/untersuchte-region","http://hl7.org/fhir/uv/genomics-reporting/StructureDefinition/region-studied"]},"status":"final","category":[{"coding":[{"system":"http://terminology.hl7.org/CodeSystem/observation-category","code":"laboratory","display":"Laboratory"}]}],"code":{"coding":[{"system":"http://loinc.org","code":"53041-0","display":"DNA region of interest panel"}]},"subject":{"reference":"Patient/mii-exa-molgen-patient-srcc"},"performer":[{"reference":"Practitioner/mii-exa-molgen-practitioner-lab"}],"method":{"coding":[{"system":"http://loinc.org","code":"LA26398-0","display":"Sequencing"}]},"specimen":{"reference":"Specimen/mii-exa-molgen-specimen-srcc"},"device":{"reference":"Device/mii-exa-molgen-device-sequencer"},"component":[{"code":{"coding":[{"system":"http://loinc.org","code":"48018-6","display":"Gene studied [ID]"}]},"valueCodeableConcept":{"coding":[{"system":"http://www.genenames.org/geneId","code":"HGNC:7326","display":"MSH3"}]}},{"code":{"coding":[{"system":"http://loinc.org","code":"81293-3","display":"Description of ranges of DNA sequences examined"}]},"valueString":"direkte Sequenzierung der codierenden Exons inkl. flankierender intronischer Bereiche"},{"code":{"coding":[{"system":"http://loinc.org","code":"51958-7"}]},"valueCodeableConcept":{"coding":[{"system":"http://www.ncbi.nlm.nih.gov/refseq","code":"NM_002439.4"}]}}]},"request":{"method":"PUT","url":"Observation/mii-exa-molgen-untersuchte-region-srcc-msh3"}},{"fullUrl":"https://www.medizininformatik-initiative.de/fhir/mii-exa-molgen-untersuchte-region-srcc-msh6","resource":{"resourceType":"Observation","id":"mii-exa-molgen-untersuchte-region-srcc-msh6","meta":{"profile":["https://www.medizininformatik-initiative.de/fhir/ext/modul-molgen/StructureDefinition/untersuchte-region","http://hl7.org/fhir/uv/genomics-reporting/StructureDefinition/region-studied"]},"status":"final","category":[{"coding":[{"system":"http://terminology.hl7.org/CodeSystem/observation-category","code":"laboratory","display":"Laboratory"}]}],"code":{"coding":[{"system":"http://loinc.org","code":"53041-0","display":"DNA region of interest panel"}]},"subject":{"reference":"Patient/mii-exa-molgen-patient-srcc"},"performer":[{"reference":"Practitioner/mii-exa-molgen-practitioner-lab"}],"method":{"coding":[{"system":"http://loinc.org","code":"LA26398-0","display":"Sequencing"}]},"specimen":{"reference":"Specimen/mii-exa-molgen-specimen-srcc"},"device":{"reference":"Device/mii-exa-molgen-device-sequencer"},"component":[{"code":{"coding":[{"system":"http://loinc.org","code":"48018-6","display":"Gene studied [ID]"}]},"valueCodeableConcept":{"coding":[{"system":"http://www.genenames.org/geneId","code":"HGNC:7329","display":"MSH6"}]}},{"code":{"coding":[{"system":"http://loinc.org","code":"81293-3","display":"Description of ranges of DNA sequences examined"}]},"valueString":"direkte Sequenzierung der codierenden Exons inkl. flankierender intronischer Bereiche"},{"code":{"coding":[{"system":"http://loinc.org","code":"51958-7"}]},"valueCodeableConcept":{"coding":[{"system":"http://www.ncbi.nlm.nih.gov/refseq","code":"NM_000179.2"}]}}]},"request":{"method":"PUT","url":"Observation/mii-exa-molgen-untersuchte-region-srcc-msh6"}},{"fullUrl":"https://www.medizininformatik-initiative.de/fhir/mii-exa-molgen-untersuchte-region-srcc-mutyh","resource":{"resourceType":"Observation","id":"mii-exa-molgen-untersuchte-region-srcc-mutyh","meta":{"profile":["https://www.medizininformatik-initiative.de/fhir/ext/modul-molgen/StructureDefinition/untersuchte-region","http://hl7.org/fhir/uv/genomics-reporting/StructureDefinition/region-studied"]},"status":"final","category":[{"coding":[{"system":"http://terminology.hl7.org/CodeSystem/observation-category","code":"laboratory","display":"Laboratory"}]}],"code":{"coding":[{"system":"http://loinc.org","code":"53041-0","display":"DNA region of interest panel"}]},"subject":{"reference":"Patient/mii-exa-molgen-patient-srcc"},"performer":[{"reference":"Practitioner/mii-exa-molgen-practitioner-lab"}],"method":{"coding":[{"system":"http://loinc.org","code":"LA26398-0","display":"Sequencing"}]},"specimen":{"reference":"Specimen/mii-exa-molgen-specimen-srcc"},"device":{"reference":"Device/mii-exa-molgen-device-sequencer"},"component":[{"code":{"coding":[{"system":"http://loinc.org","code":"48018-6","display":"Gene studied [ID]"}]},"valueCodeableConcept":{"coding":[{"system":"http://www.genenames.org/geneId","code":"HGNC:7527","display":"MUTYH"}]}},{"code":{"coding":[{"system":"http://loinc.org","code":"81293-3","display":"Description of ranges of DNA sequences examined"}]},"valueString":"direkte Sequenzierung der codierenden Exons inkl. flankierender intronischer Bereiche"},{"code":{"coding":[{"system":"http://loinc.org","code":"51958-7"}]},"valueCodeableConcept":{"coding":[{"system":"http://www.ncbi.nlm.nih.gov/refseq","code":"NM_001128425.1"}]}}]},"request":{"method":"PUT","url":"Observation/mii-exa-molgen-untersuchte-region-srcc-mutyh"}},{"fullUrl":"https://www.medizininformatik-initiative.de/fhir/mii-exa-molgen-untersuchte-region-srcc-nthl1","resource":{"resourceType":"Observation","id":"mii-exa-molgen-untersuchte-region-srcc-nthl1","meta":{"profile":["https://www.medizininformatik-initiative.de/fhir/ext/modul-molgen/StructureDefinition/untersuchte-region","http://hl7.org/fhir/uv/genomics-reporting/StructureDefinition/region-studied"]},"status":"final","category":[{"coding":[{"system":"http://terminology.hl7.org/CodeSystem/observation-category","code":"laboratory","display":"Laboratory"}]}],"code":{"coding":[{"system":"http://loinc.org","code":"53041-0","display":"DNA region of interest panel"}]},"subject":{"reference":"Patient/mii-exa-molgen-patient-srcc"},"performer":[{"reference":"Practitioner/mii-exa-molgen-practitioner-lab"}],"method":{"coding":[{"system":"http://loinc.org","code":"LA26398-0","display":"Sequencing"}]},"specimen":{"reference":"Specimen/mii-exa-molgen-specimen-srcc"},"device":{"reference":"Device/mii-exa-molgen-device-sequencer"},"component":[{"code":{"coding":[{"system":"http://loinc.org","code":"48018-6","display":"Gene studied [ID]"}]},"valueCodeableConcept":{"coding":[{"system":"http://www.genenames.org/geneId","code":"HGNC:8028","display":"NTHL1"}]}},{"code":{"coding":[{"system":"http://loinc.org","code":"81293-3","display":"Description of ranges of DNA sequences examined"}]},"valueString":"direkte Sequenzierung der codierenden Exons inkl. flankierender intronischer Bereiche"},{"code":{"coding":[{"system":"http://loinc.org","code":"51958-7"}]},"valueCodeableConcept":{"coding":[{"system":"http://www.ncbi.nlm.nih.gov/refseq","code":"NM_002528.7"}]}}]},"request":{"method":"PUT","url":"Observation/mii-exa-molgen-untersuchte-region-srcc-nthl1"}},{"fullUrl":"https://www.medizininformatik-initiative.de/fhir/mii-exa-molgen-untersuchte-region-srcc-pms2","resource":{"resourceType":"Observation","id":"mii-exa-molgen-untersuchte-region-srcc-pms2","meta":{"profile":["https://www.medizininformatik-initiative.de/fhir/ext/modul-molgen/StructureDefinition/untersuchte-region","http://hl7.org/fhir/uv/genomics-reporting/StructureDefinition/region-studied"]},"status":"final","category":[{"coding":[{"system":"http://terminology.hl7.org/CodeSystem/observation-category","code":"laboratory","display":"Laboratory"}]}],"code":{"coding":[{"system":"http://loinc.org","code":"53041-0","display":"DNA region of interest panel"}]},"subject":{"reference":"Patient/mii-exa-molgen-patient-srcc"},"performer":[{"reference":"Practitioner/mii-exa-molgen-practitioner-lab"}],"method":{"coding":[{"system":"http://loinc.org","code":"LA26398-0","display":"Sequencing"}]},"specimen":{"reference":"Specimen/mii-exa-molgen-specimen-srcc"},"device":{"reference":"Device/mii-exa-molgen-device-sequencer"},"component":[{"code":{"coding":[{"system":"http://loinc.org","code":"48018-6","display":"Gene studied [ID]"}]},"valueCodeableConcept":{"coding":[{"system":"http://www.genenames.org/geneId","code":"HGNC:9122","display":"PMS2"}]}},{"code":{"coding":[{"system":"http://loinc.org","code":"81293-3","display":"Description of ranges of DNA sequences examined"}]},"valueString":"direkte Sequenzierung der codierenden Exons inkl. flankierender intronischer Bereiche"},{"code":{"coding":[{"system":"http://loinc.org","code":"51958-7"}]},"valueCodeableConcept":{"coding":[{"system":"http://www.ncbi.nlm.nih.gov/refseq","code":"NM_000535.5"}]}}]},"request":{"method":"PUT","url":"Observation/mii-exa-molgen-untersuchte-region-srcc-pms2"}},{"fullUrl":"https://www.medizininformatik-initiative.de/fhir/mii-exa-molgen-untersuchte-region-srcc-pold1","resource":{"resourceType":"Observation","id":"mii-exa-molgen-untersuchte-region-srcc-pold1","meta":{"profile":["https://www.medizininformatik-initiative.de/fhir/ext/modul-molgen/StructureDefinition/untersuchte-region","http://hl7.org/fhir/uv/genomics-reporting/StructureDefinition/region-studied"]},"status":"final","category":[{"coding":[{"system":"http://terminology.hl7.org/CodeSystem/observation-category","code":"laboratory","display":"Laboratory"}]}],"code":{"coding":[{"system":"http://loinc.org","code":"53041-0","display":"DNA region of interest panel"}]},"subject":{"reference":"Patient/mii-exa-molgen-patient-srcc"},"performer":[{"reference":"Practitioner/mii-exa-molgen-practitioner-lab"}],"method":{"coding":[{"system":"http://loinc.org","code":"LA26398-0","display":"Sequencing"}]},"specimen":{"reference":"Specimen/mii-exa-molgen-specimen-srcc"},"device":{"reference":"Device/mii-exa-molgen-device-sequencer"},"component":[{"code":{"coding":[{"system":"http://loinc.org","code":"48018-6","display":"Gene studied [ID]"}]},"valueCodeableConcept":{"coding":[{"system":"http://www.genenames.org/geneId","code":"HGNC:9175","display":"POLD1"}]}},{"code":{"coding":[{"system":"http://loinc.org","code":"81293-3","display":"Description of ranges of DNA sequences examined"}]},"valueString":"direkte Sequenzierung der codierenden Exons inkl. flankierender intronischer Bereiche"},{"code":{"coding":[{"system":"http://loinc.org","code":"51958-7"}]},"valueCodeableConcept":{"coding":[{"system":"http://www.ncbi.nlm.nih.gov/refseq","code":"NM_001256849.1"}]}}]},"request":{"method":"PUT","url":"Observation/mii-exa-molgen-untersuchte-region-srcc-pold1"}},{"fullUrl":"https://www.medizininformatik-initiative.de/fhir/mii-exa-molgen-untersuchte-region-srcc-pole","resource":{"resourceType":"Observation","id":"mii-exa-molgen-untersuchte-region-srcc-pole","meta":{"profile":["https://www.medizininformatik-initiative.de/fhir/ext/modul-molgen/StructureDefinition/untersuchte-region","http://hl7.org/fhir/uv/genomics-reporting/StructureDefinition/region-studied"]},"status":"final","category":[{"coding":[{"system":"http://terminology.hl7.org/CodeSystem/observation-category","code":"laboratory","display":"Laboratory"}]}],"code":{"coding":[{"system":"http://loinc.org","code":"53041-0","display":"DNA region of interest panel"}]},"subject":{"reference":"Patient/mii-exa-molgen-patient-srcc"},"performer":[{"reference":"Practitioner/mii-exa-molgen-practitioner-lab"}],"method":{"coding":[{"system":"http://loinc.org","code":"LA26398-0","display":"Sequencing"}]},"specimen":{"reference":"Specimen/mii-exa-molgen-specimen-srcc"},"device":{"reference":"Device/mii-exa-molgen-device-sequencer"},"component":[{"code":{"coding":[{"system":"http://loinc.org","code":"48018-6","display":"Gene studied [ID]"}]},"valueCodeableConcept":{"coding":[{"system":"http://www.genenames.org/geneId","code":"HGNC:9177","display":"POLE"}]}},{"code":{"coding":[{"system":"http://loinc.org","code":"81293-3","display":"Description of ranges of DNA sequences examined"}]},"valueString":"direkte Sequenzierung der codierenden Exons inkl. flankierender intronischer Bereiche"},{"code":{"coding":[{"system":"http://loinc.org","code":"51958-7"}]},"valueCodeableConcept":{"coding":[{"system":"http://www.ncbi.nlm.nih.gov/refseq","code":"NM_006231.3"}]}}]},"request":{"method":"PUT","url":"Observation/mii-exa-molgen-untersuchte-region-srcc-pole"}},{"fullUrl":"https://www.medizininformatik-initiative.de/fhir/mii-exa-molgen-untersuchte-region-srcc-smad4","resource":{"resourceType":"Observation","id":"mii-exa-molgen-untersuchte-region-srcc-smad4","meta":{"profile":["https://www.medizininformatik-initiative.de/fhir/ext/modul-molgen/StructureDefinition/untersuchte-region","http://hl7.org/fhir/uv/genomics-reporting/StructureDefinition/region-studied"]},"status":"final","category":[{"coding":[{"system":"http://terminology.hl7.org/CodeSystem/observation-category","code":"laboratory","display":"Laboratory"}]}],"code":{"coding":[{"system":"http://loinc.org","code":"53041-0","display":"DNA region of interest panel"}]},"subject":{"reference":"Patient/mii-exa-molgen-patient-srcc"},"performer":[{"reference":"Practitioner/mii-exa-molgen-practitioner-lab"}],"method":{"coding":[{"system":"http://loinc.org","code":"LA26398-0","display":"Sequencing"}]},"specimen":{"reference":"Specimen/mii-exa-molgen-specimen-srcc"},"device":{"reference":"Device/mii-exa-molgen-device-sequencer"},"component":[{"code":{"coding":[{"system":"http://loinc.org","code":"48018-6","display":"Gene studied [ID]"}]},"valueCodeableConcept":{"coding":[{"system":"http://www.genenames.org/geneId","code":"HGNC:6770","display":"SMAD4"}]}},{"code":{"coding":[{"system":"http://loinc.org","code":"81293-3","display":"Description of ranges of DNA sequences examined"}]},"valueString":"direkte Sequenzierung der codierenden Exons inkl. flankierender intronischer Bereiche"},{"code":{"coding":[{"system":"http://loinc.org","code":"51958-7"}]},"valueCodeableConcept":{"coding":[{"system":"http://www.ncbi.nlm.nih.gov/refseq","code":"NM_005359.5"}]}}]},"request":{"method":"PUT","url":"Observation/mii-exa-molgen-untersuchte-region-srcc-smad4"}},{"fullUrl":"https://www.medizininformatik-initiative.de/fhir/mii-exa-molgen-untersuchte-region-srcc-stk11","resource":{"resourceType":"Observation","id":"mii-exa-molgen-untersuchte-region-srcc-stk11","meta":{"profile":["https://www.medizininformatik-initiative.de/fhir/ext/modul-molgen/StructureDefinition/untersuchte-region","http://hl7.org/fhir/uv/genomics-reporting/StructureDefinition/region-studied"]},"status":"final","category":[{"coding":[{"system":"http://terminology.hl7.org/CodeSystem/observation-category","code":"laboratory","display":"Laboratory"}]}],"code":{"coding":[{"system":"http://loinc.org","code":"53041-0","display":"DNA region of interest panel"}]},"subject":{"reference":"Patient/mii-exa-molgen-patient-srcc"},"performer":[{"reference":"Practitioner/mii-exa-molgen-practitioner-lab"}],"method":{"coding":[{"system":"http://loinc.org","code":"LA26398-0","display":"Sequencing"}]},"specimen":{"reference":"Specimen/mii-exa-molgen-specimen-srcc"},"device":{"reference":"Device/mii-exa-molgen-device-sequencer"},"component":[{"code":{"coding":[{"system":"http://loinc.org","code":"48018-6","display":"Gene studied [ID]"}]},"valueCodeableConcept":{"coding":[{"system":"http://www.genenames.org/geneId","code":"HGNC:11389","display":"STK11"}]}},{"code":{"coding":[{"system":"http://loinc.org","code":"81293-3","display":"Description of ranges of DNA sequences examined"}]},"valueString":"direkte Sequenzierung der codierenden Exons inkl. flankierender intronischer Bereiche"},{"code":{"coding":[{"system":"http://loinc.org","code":"51958-7"}]},"valueCodeableConcept":{"coding":[{"system":"http://www.ncbi.nlm.nih.gov/refseq","code":"NM_000455.4"}]}}]},"request":{"method":"PUT","url":"Observation/mii-exa-molgen-untersuchte-region-srcc-stk11"}},{"fullUrl":"https://www.medizininformatik-initiative.de/fhir/mii-exa-molgen-untersuchte-region-srcc-tp53","resource":{"resourceType":"Observation","id":"mii-exa-molgen-untersuchte-region-srcc-tp53","meta":{"profile":["https://www.medizininformatik-initiative.de/fhir/ext/modul-molgen/StructureDefinition/untersuchte-region","http://hl7.org/fhir/uv/genomics-reporting/StructureDefinition/region-studied"]},"status":"final","category":[{"coding":[{"system":"http://terminology.hl7.org/CodeSystem/observation-category","code":"laboratory","display":"Laboratory"}]}],"code":{"coding":[{"system":"http://loinc.org","code":"53041-0","display":"DNA region of interest panel"}]},"subject":{"reference":"Patient/mii-exa-molgen-patient-srcc"},"performer":[{"reference":"Practitioner/mii-exa-molgen-practitioner-lab"}],"method":{"coding":[{"system":"http://loinc.org","code":"LA26398-0","display":"Sequencing"}]},"specimen":{"reference":"Specimen/mii-exa-molgen-specimen-srcc"},"device":{"reference":"Device/mii-exa-molgen-device-sequencer"},"component":[{"code":{"coding":[{"system":"http://loinc.org","code":"48018-6","display":"Gene studied [ID]"}]},"valueCodeableConcept":{"coding":[{"system":"http://www.genenames.org/geneId","code":"HGNC:11998","display":"TP53"}]}},{"code":{"coding":[{"system":"http://loinc.org","code":"81293-3","display":"Description of ranges of DNA sequences examined"}]},"valueString":"direkte Sequenzierung der codierenden Exons inkl. flankierender intronischer Bereiche"},{"code":{"coding":[{"system":"http://loinc.org","code":"51958-7"}]},"valueCodeableConcept":{"coding":[{"system":"http://www.ncbi.nlm.nih.gov/refseq","code":"NM_000546.5"}]}}]},"request":{"method":"PUT","url":"Observation/mii-exa-molgen-untersuchte-region-srcc-tp53"}},{"fullUrl":"https://www.medizininformatik-initiative.de/fhir/mii-exa-molgen-untersuchte-region-srcc-ctnna1","resource":{"resourceType":"Observation","id":"mii-exa-molgen-untersuchte-region-srcc-ctnna1","meta":{"profile":["https://www.medizininformatik-initiative.de/fhir/ext/modul-molgen/StructureDefinition/untersuchte-region","http://hl7.org/fhir/uv/genomics-reporting/StructureDefinition/region-studied"]},"status":"final","category":[{"coding":[{"system":"http://terminology.hl7.org/CodeSystem/observation-category","code":"laboratory","display":"Laboratory"}]}],"code":{"coding":[{"system":"http://loinc.org","code":"53041-0","display":"DNA region of interest panel"}]},"subject":{"reference":"Patient/mii-exa-molgen-patient-srcc"},"performer":[{"reference":"Practitioner/mii-exa-molgen-practitioner-lab"}],"method":{"coding":[{"system":"http://loinc.org","code":"LA26398-0","display":"Sequencing"}]},"specimen":{"reference":"Specimen/mii-exa-molgen-specimen-srcc"},"device":{"reference":"Device/mii-exa-molgen-device-sequencer"},"component":[{"code":{"coding":[{"system":"http://loinc.org","code":"48018-6","display":"Gene studied [ID]"}]},"valueCodeableConcept":{"coding":[{"system":"http://www.genenames.org/geneId","code":"HGNC:2509","display":"CTNNA1"}]}},{"code":{"coding":[{"system":"http://loinc.org","code":"81293-3","display":"Description of ranges of DNA sequences examined"}]},"valueString":"direkte Sequenzierung der codierenden Exons inkl. flankierender intronischer Bereiche"},{"code":{"coding":[{"system":"http://loinc.org","code":"51958-7"}]},"valueCodeableConcept":{"coding":[{"system":"http://www.ncbi.nlm.nih.gov/refseq","code":"NM_001903.5"}]}}]},"request":{"method":"PUT","url":"Observation/mii-exa-molgen-untersuchte-region-srcc-ctnna1"}}]}