{"resourceType":"Bundle","id":"bundle-oncology-report-example","type":"transaction","entry":[{"fullUrl":"urn:uuid:fc16d84c-8584-4e1d-baae-64e2f95bfe17","resource":{"resourceType":"Organization","id":"Inline-Instance-for-oncology-report-example-1","text":{"status":"generated","div":"<div xmlns=\"http://www.w3.org/1999/xhtml\"><p><b>Generated Narrative</b></p><div style=\"display: inline-block; background-color: #d9e0e7; padding: 6px; margin: 4px; border: 1px solid #8da1b4; border-radius: 5px; line-height: 60%\"><p style=\"margin-bottom: 0px\">Resource \"Inline-Instance-for-oncology-report-example-1\" </p></div><p><b>identifier</b>: id: CEGAT</p><p><b>name</b>: CEGAT</p></div>"},"identifier":[{"system":"http://molit.eu/fhir/genomics/NamingSystem/organization","value":"CEGAT"}],"name":"CEGAT"},"request":{"method":"POST","url":"Organization","ifNoneExist":"identifier=http://molit.eu/fhir/genomics/NamingSystem/organization|CEGAT"}},{"fullUrl":"urn:uuid:f7a438e6-f484-453d-97e8-aa4d51008648","resource":{"resourceType":"Patient","id":"Inline-Instance-for-oncology-report-example-2","text":{"status":"generated","div":"<div xmlns=\"http://www.w3.org/1999/xhtml\"><p><b>Generated Narrative</b></p><div style=\"display: inline-block; background-color: #d9e0e7; padding: 6px; margin: 4px; border: 1px solid #8da1b4; border-radius: 5px; line-height: 60%\"><p style=\"margin-bottom: 0px\">Resource \"Inline-Instance-for-oncology-report-example-2\" </p></div><p><b>identifier</b>: id: 11111</p></div>"},"identifier":[{"system":"http://molit.eu/fhir/genomics/NamingSystem/cegat/patID","value":"11111"}]},"request":{"method":"POST","url":"Patient","ifNoneExist":"identifier=http://molit.eu/fhir/genomics/NamingSystem/cegat/patID|11111"}},{"fullUrl":"urn:uuid:a2041c83-b73d-4fc8-9466-4ba4a92da516","resource":{"resourceType":"Specimen","id":"Inline-Instance-for-oncology-report-example-3","text":{"status":"generated","div":"<div xmlns=\"http://www.w3.org/1999/xhtml\"><p><b>Generated Narrative</b></p><div style=\"display: inline-block; background-color: #d9e0e7; padding: 6px; margin: 4px; border: 1px solid #8da1b4; border-radius: 5px; line-height: 60%\"><p style=\"margin-bottom: 0px\">Resource \"Inline-Instance-for-oncology-report-example-3\" </p></div><p><b>identifier</b>: id: UNKNOWN</p><p><b>type</b>: Tumor <span style=\"background: LightGoldenRodYellow; margin: 4px; border: 1px solid khaki\"> (<a href=\"http://terminology.hl7.org/3.1.0/CodeSystem-v2-0487.html\">specimenType</a>#TUMOR)</span></p><p><b>subject</b>: <a href=\"#Patient_Inline-Instance-for-oncology-report-example-2\">See above (urn:uuid:f7a438e6-f484-453d-97e8-aa4d51008648)</a></p><h3>Collections</h3><table class=\"grid\"><tr><td>-</td><td><b>Method</b></td><td><b>BodySite</b></td></tr><tr><td>*</td><td>Biopsy <span style=\"background: LightGoldenRodYellow; margin: 4px; border: 1px solid khaki\"> ()</span></td><td>Malignant neoplasm of cardia <span style=\"background: LightGoldenRodYellow; margin: 4px; border: 1px solid khaki\"> (<a href=\"http://terminology.hl7.org/3.1.0/CodeSystem-icd10CM.html\">International Classification of Diseases, 10th Revision, Clinical Modification (ICD-10-CM)</a>#C16.0)</span></td></tr></table></div>"},"identifier":[{"system":"http://molit.eu/fhir/genomics/NamingSystem/cegat/tissueID","value":"UNKNOWN"}],"type":{"coding":[{"system":"http://terminology.hl7.org/CodeSystem/v2-0487","code":"TUMOR","display":"Tumor"}]},"subject":{"reference":"urn:uuid:f7a438e6-f484-453d-97e8-aa4d51008648"},"collection":{"method":{"text":"Biopsy"},"bodySite":{"coding":[{"system":"http://hl7.org/fhir/sid/icd-10-cm","code":"C16.0"}]}}},"request":{"method":"POST","url":"Specimen","ifNoneExist":"identifier=http://molit.eu/fhir/genomics/NamingSystem/cegat/tissueID|UNKNOWN"}},{"fullUrl":"urn:uuid:dac358c3-403a-4dbb-b478-4259aed882ae","resource":{"resourceType":"Observation","id":"Inline-Instance-for-oncology-report-example-4","meta":{"profile":["http://hl7.org/fhir/uv/genomics-reporting/StructureDefinition/variant"]},"text":{"status":"generated","div":"<div xmlns=\"http://www.w3.org/1999/xhtml\"><p><b>Generated Narrative</b></p><div style=\"display: inline-block; background-color: #d9e0e7; padding: 6px; margin: 4px; border: 1px solid #8da1b4; border-radius: 5px; line-height: 60%\"><p style=\"margin-bottom: 0px\">Resource \"Inline-Instance-for-oncology-report-example-4\" </p><p style=\"margin-bottom: 0px\">Profile: <a href=\"StructureDefinition-variant.html\">Variant</a></p></div><p><b>status</b>: final</p><p><b>category</b>: Laboratory <span style=\"background: LightGoldenRodYellow; margin: 4px; border: 1px solid khaki\"> (<a href=\"http://terminology.hl7.org/3.1.0/CodeSystem-observation-category.html\">Observation Category Codes</a>#laboratory)</span></p><p><b>code</b>: Genetic variant assessment <span style=\"background: LightGoldenRodYellow; margin: 4px; border: 1px solid khaki\"> (<a href=\"https://loinc.org/\">LOINC</a>#69548-6)</span></p><p><b>subject</b>: <a href=\"#Patient_Inline-Instance-for-oncology-report-example-2\">See above (urn:uuid:f7a438e6-f484-453d-97e8-aa4d51008648)</a></p><p><b>performer</b>: <a href=\"#Organization_Inline-Instance-for-oncology-report-example-1\">See above (urn:uuid:fc16d84c-8584-4e1d-baae-64e2f95bfe17)</a></p><p><b>value</b>: Present <span style=\"background: LightGoldenRodYellow; margin: 4px; border: 1px solid khaki\"> (<a href=\"https://loinc.org/\">LOINC</a>#LA9633-4)</span></p><p><b>method</b>: Sequencing <span style=\"background: LightGoldenRodYellow; margin: 4px; border: 1px solid khaki\"> (<a href=\"https://loinc.org/\">LOINC</a>#LA26398-0)</span></p><p><b>specimen</b>: <span></span></p><blockquote><p><b>component</b></p><p><b>code</b>: Genomic source class <span style=\"background: LightGoldenRodYellow; margin: 4px; border: 1px solid khaki\"> (<a href=\"https://loinc.org/\">LOINC</a>#48002-0)</span></p><p><b>value</b>: Somatic <span style=\"background: LightGoldenRodYellow; margin: 4px; border: 1px solid khaki\"> (<a href=\"https://loinc.org/\">LOINC</a>#LA6684-0)</span></p></blockquote><blockquote><p><b>component</b></p><p><b>code</b>: Gene studied [ID] <span style=\"background: LightGoldenRodYellow; margin: 4px; border: 1px solid khaki\"> (<a href=\"https://loinc.org/\">LOINC</a>#48018-6)</span></p><p><b>value</b>: PIK3CA <span style=\"background: LightGoldenRodYellow; margin: 4px; border: 1px solid khaki\"> (geneId#HGNC:8975)</span></p></blockquote><blockquote><p><b>component</b></p><p><b>code</b>: Human reference sequence assembly version <span style=\"background: LightGoldenRodYellow; margin: 4px; border: 1px solid khaki\"> (<a href=\"https://loinc.org/\">LOINC</a>#62374-4)</span></p><p><b>value</b>: GRCh37 <span style=\"background: LightGoldenRodYellow; margin: 4px; border: 1px solid khaki\"> (<a href=\"https://loinc.org/\">LOINC</a>#LA14029-5)</span></p></blockquote><blockquote><p><b>component</b></p><p><b>code</b>: DNA change (c.HGVS) <span style=\"background: LightGoldenRodYellow; margin: 4px; border: 1px solid khaki\"> (<a href=\"https://loinc.org/\">LOINC</a>#48004-6)</span></p><p><b>value</b>: c.3140A&gt;G <span style=\"background: LightGoldenRodYellow; margin: 4px; border: 1px solid khaki\"> (<a href=\"http://terminology.hl7.org/3.1.0/CodeSystem-v3-hgvs.html\">Human Genome Variation Society nomenclature</a>#c.3140A&gt;G)</span></p></blockquote><blockquote><p><b>component</b></p><p><b>code</b>: DNA change type <span style=\"background: LightGoldenRodYellow; margin: 4px; border: 1px solid khaki\"> (<a href=\"https://loinc.org/\">LOINC</a>#48019-4)</span></p><p><b>value</b>: substitution <span style=\"background: LightGoldenRodYellow; margin: 4px; border: 1px solid khaki\"> (sequenceontology.org#SO:1000002)</span></p></blockquote><blockquote><p><b>component</b></p><p><b>code</b>: Amino acid change (pHGVS) <span style=\"background: LightGoldenRodYellow; margin: 4px; border: 1px solid khaki\"> (<a href=\"https://loinc.org/\">LOINC</a>#48005-3)</span></p><p><b>value</b>: p.H1047R <span style=\"background: LightGoldenRodYellow; margin: 4px; border: 1px solid khaki\"> (<a href=\"http://terminology.hl7.org/3.1.0/CodeSystem-v3-hgvs.html\">Human Genome Variation Society nomenclature</a>#p.H1047R)</span></p></blockquote><blockquote><p><b>component</b></p><p><b>code</b>: Molecular Consequence <span style=\"background: LightGoldenRodYellow; margin: 4px; border: 1px solid khaki\"> (<a href=\"CodeSystem-tbd-codes-cs.html\">To Be Determined Codes</a>#molecular-consequence)</span></p><p><b>value</b>: missense_variant <span style=\"background: LightGoldenRodYellow; margin: 4px; border: 1px solid khaki\"> (sequenceontology.org#SO:0001583)</span></p></blockquote><blockquote><p><b>component</b></p><p><b>code</b>: Transcript reference sequence [ID] <span style=\"background: LightGoldenRodYellow; margin: 4px; border: 1px solid khaki\"> (<a href=\"https://loinc.org/\">LOINC</a>#51958-7)</span></p><p><b>value</b>: NM_006218.3 <span style=\"background: LightGoldenRodYellow; margin: 4px; border: 1px solid khaki\"> (<a href=\"http://terminology.hl7.org/3.1.0/CodeSystem-v3-refSeq.html\">Gene Reference Sequence Collection</a>#NM_006218.3)</span></p></blockquote><blockquote><p><b>component</b></p><p><b>code</b>: Genomic ref allele [ID] <span style=\"background: LightGoldenRodYellow; margin: 4px; border: 1px solid khaki\"> (<a href=\"https://loinc.org/\">LOINC</a>#69547-8)</span></p><p><b>value</b>: A</p></blockquote><blockquote><p><b>component</b></p><p><b>code</b>: Sample VAF <span style=\"background: LightGoldenRodYellow; margin: 4px; border: 1px solid khaki\"> (<a href=\"https://loinc.org/\">LOINC</a>#81258-6)</span></p><p><b>value</b>: 0.2188 relative frequency of a particular allele in the specimen<span style=\"background: LightGoldenRodYellow\"> (Details: UCUM code 1 = '1')</span></p></blockquote><blockquote><p><b>component</b></p><p><b>code</b>: Allelic read depth <span style=\"background: LightGoldenRodYellow; margin: 4px; border: 1px solid khaki\"> (<a href=\"https://loinc.org/\">LOINC</a>#82121-5)</span></p><p><b>value</b>: 64 reads per base pair<span style=\"background: LightGoldenRodYellow\"> (Details: UCUM code {reads}/{base} = '{reads}/{base}')</span></p></blockquote></div>"},"status":"final","category":[{"coding":[{"system":"http://terminology.hl7.org/CodeSystem/observation-category","code":"laboratory"}]}],"code":{"coding":[{"system":"http://loinc.org","code":"69548-6","display":"Genetic variant assessment"}]},"subject":{"reference":"urn:uuid:f7a438e6-f484-453d-97e8-aa4d51008648"},"performer":[{"reference":"urn:uuid:fc16d84c-8584-4e1d-baae-64e2f95bfe17"}],"valueCodeableConcept":{"coding":[{"system":"http://loinc.org","code":"LA9633-4","display":"Present"}]},"method":{"coding":[{"system":"http://loinc.org","code":"LA26398-0","display":"Sequencing"}]},"specimen":{"identifier":{"system":"http://molit.eu/fhir/genomics/NamingSystem/cegat/tissueID","value":"UNKNOWN"}},"component":[{"code":{"coding":[{"system":"http://loinc.org","code":"48002-0","display":"Genomic source class"}]},"valueCodeableConcept":{"coding":[{"system":"http://loinc.org","code":"LA6684-0","display":"Somatic"}]}},{"code":{"coding":[{"system":"http://loinc.org","code":"48018-6","display":"Gene studied [ID]"}]},"valueCodeableConcept":{"coding":[{"system":"http://www.genenames.org/geneId","code":"HGNC:8975","display":"PIK3CA"}]}},{"code":{"coding":[{"system":"http://loinc.org","code":"62374-4","display":"Human reference sequence assembly version"}]},"valueCodeableConcept":{"coding":[{"system":"http://loinc.org","code":"LA14029-5","display":"GRCh37"}]}},{"code":{"coding":[{"system":"http://loinc.org","code":"48004-6","display":"DNA change (c.HGVS)"}]},"valueCodeableConcept":{"coding":[{"system":"http://varnomen.hgvs.org","code":"c.3140A>G","display":"c.3140A>G"}]}},{"code":{"coding":[{"system":"http://loinc.org","code":"48019-4","display":"DNA change type"}]},"valueCodeableConcept":{"coding":[{"system":"http://sequenceontology.org","code":"SO:1000002","display":"substitution"}]}},{"code":{"coding":[{"system":"http://loinc.org","code":"48005-3","display":"Amino acid change (pHGVS)"}]},"valueCodeableConcept":{"coding":[{"system":"http://varnomen.hgvs.org","code":"p.H1047R","display":"p.H1047R"}]}},{"code":{"coding":[{"system":"http://hl7.org/fhir/uv/genomics-reporting/CodeSystem/tbd-codes-cs","code":"molecular-consequence","display":"Molecular Consequence"}]},"valueCodeableConcept":{"coding":[{"system":"http://sequenceontology.org","code":"SO:0001583","display":"missense_variant"}]}},{"code":{"coding":[{"system":"http://loinc.org","code":"51958-7","display":"Transcript reference sequence [ID]"}]},"valueCodeableConcept":{"coding":[{"system":"http://www.ncbi.nlm.nih.gov/refseq","code":"NM_006218.3","display":"NM_006218.3"}]}},{"code":{"coding":[{"system":"http://loinc.org","code":"69547-8","display":"Genomic ref allele [ID]"}]},"valueString":"A"},{"code":{"coding":[{"system":"http://loinc.org","code":"81258-6","display":"Sample VAF"}]},"valueQuantity":{"value":0.2188,"unit":"relative frequency of a particular allele in the specimen","system":"http://unitsofmeasure.org","code":"1"}},{"code":{"coding":[{"system":"http://loinc.org","code":"82121-5","display":"Allelic read depth"}]},"valueQuantity":{"value":64,"unit":"reads per base pair","system":"http://unitsofmeasure.org","code":"{reads}/{base}"}}]},"request":{"method":"POST","url":"Observation"}},{"fullUrl":"urn:uuid:1d773d66-cec7-44a2-b92a-46d00adeae00","resource":{"resourceType":"Observation","id":"Inline-Instance-for-oncology-report-example-5","meta":{"profile":["http://hl7.org/fhir/uv/genomics-reporting/StructureDefinition/variant"]},"text":{"status":"generated","div":"<div xmlns=\"http://www.w3.org/1999/xhtml\"><p><b>Generated Narrative</b></p><div style=\"display: inline-block; background-color: #d9e0e7; padding: 6px; margin: 4px; border: 1px solid #8da1b4; border-radius: 5px; line-height: 60%\"><p style=\"margin-bottom: 0px\">Resource \"Inline-Instance-for-oncology-report-example-5\" </p><p style=\"margin-bottom: 0px\">Profile: <a href=\"StructureDefinition-variant.html\">Variant</a></p></div><p><b>status</b>: final</p><p><b>category</b>: Laboratory <span style=\"background: LightGoldenRodYellow; margin: 4px; border: 1px solid khaki\"> (<a href=\"http://terminology.hl7.org/3.1.0/CodeSystem-observation-category.html\">Observation Category Codes</a>#laboratory)</span></p><p><b>code</b>: Genetic variant assessment <span style=\"background: LightGoldenRodYellow; margin: 4px; border: 1px solid khaki\"> (<a href=\"https://loinc.org/\">LOINC</a>#69548-6)</span></p><p><b>subject</b>: <a href=\"#Patient_Inline-Instance-for-oncology-report-example-2\">See above (urn:uuid:f7a438e6-f484-453d-97e8-aa4d51008648)</a></p><p><b>performer</b>: <a href=\"#Organization_Inline-Instance-for-oncology-report-example-1\">See above (urn:uuid:fc16d84c-8584-4e1d-baae-64e2f95bfe17)</a></p><p><b>value</b>: Present <span style=\"background: LightGoldenRodYellow; margin: 4px; border: 1px solid khaki\"> (<a href=\"https://loinc.org/\">LOINC</a>#LA9633-4)</span></p><p><b>method</b>: Sequencing <span style=\"background: LightGoldenRodYellow; margin: 4px; border: 1px solid khaki\"> (<a href=\"https://loinc.org/\">LOINC</a>#LA26398-0)</span></p><p><b>specimen</b>: <span></span></p><blockquote><p><b>component</b></p><p><b>code</b>: Genomic source class <span style=\"background: LightGoldenRodYellow; margin: 4px; border: 1px solid khaki\"> (<a href=\"https://loinc.org/\">LOINC</a>#48002-0)</span></p><p><b>value</b>: Somatic <span style=\"background: LightGoldenRodYellow; margin: 4px; border: 1px solid khaki\"> (<a href=\"https://loinc.org/\">LOINC</a>#LA6684-0)</span></p></blockquote><blockquote><p><b>component</b></p><p><b>code</b>: Gene studied [ID] <span style=\"background: LightGoldenRodYellow; margin: 4px; border: 1px solid khaki\"> (<a href=\"https://loinc.org/\">LOINC</a>#48018-6)</span></p><p><b>value</b>: NRAS <span style=\"background: LightGoldenRodYellow; margin: 4px; border: 1px solid khaki\"> (geneId#HGNC:7989)</span></p></blockquote><blockquote><p><b>component</b></p><p><b>code</b>: Human reference sequence assembly version <span style=\"background: LightGoldenRodYellow; margin: 4px; border: 1px solid khaki\"> (<a href=\"https://loinc.org/\">LOINC</a>#62374-4)</span></p><p><b>value</b>: GRCh37 <span style=\"background: LightGoldenRodYellow; margin: 4px; border: 1px solid khaki\"> (<a href=\"https://loinc.org/\">LOINC</a>#LA14029-5)</span></p></blockquote><blockquote><p><b>component</b></p><p><b>code</b>: DNA change (c.HGVS) <span style=\"background: LightGoldenRodYellow; margin: 4px; border: 1px solid khaki\"> (<a href=\"https://loinc.org/\">LOINC</a>#48004-6)</span></p><p><b>value</b>: c.34G&gt;T <span style=\"background: LightGoldenRodYellow; margin: 4px; border: 1px solid khaki\"> (<a href=\"http://terminology.hl7.org/3.1.0/CodeSystem-v3-hgvs.html\">Human Genome Variation Society nomenclature</a>#c.34G&gt;T)</span></p></blockquote><blockquote><p><b>component</b></p><p><b>code</b>: DNA change type <span style=\"background: LightGoldenRodYellow; margin: 4px; border: 1px solid khaki\"> (<a href=\"https://loinc.org/\">LOINC</a>#48019-4)</span></p><p><b>value</b>: substitution <span style=\"background: LightGoldenRodYellow; margin: 4px; border: 1px solid khaki\"> (sequenceontology.org#SO:1000002)</span></p></blockquote><blockquote><p><b>component</b></p><p><b>code</b>: Amino acid change (pHGVS) <span style=\"background: LightGoldenRodYellow; margin: 4px; border: 1px solid khaki\"> (<a href=\"https://loinc.org/\">LOINC</a>#48005-3)</span></p><p><b>value</b>: p.G12C <span style=\"background: LightGoldenRodYellow; margin: 4px; border: 1px solid khaki\"> (<a href=\"http://terminology.hl7.org/3.1.0/CodeSystem-v3-hgvs.html\">Human Genome Variation Society nomenclature</a>#p.G12C)</span></p></blockquote><blockquote><p><b>component</b></p><p><b>code</b>: Molecular Consequence <span style=\"background: LightGoldenRodYellow; margin: 4px; border: 1px solid khaki\"> (<a href=\"CodeSystem-tbd-codes-cs.html\">To Be Determined Codes</a>#molecular-consequence)</span></p><p><b>value</b>: missense_variant <span style=\"background: LightGoldenRodYellow; margin: 4px; border: 1px solid khaki\"> (sequenceontology.org#SO:0001583)</span></p></blockquote><blockquote><p><b>component</b></p><p><b>code</b>: Transcript reference sequence [ID] <span style=\"background: LightGoldenRodYellow; margin: 4px; border: 1px solid khaki\"> (<a href=\"https://loinc.org/\">LOINC</a>#51958-7)</span></p><p><b>value</b>: NM_002524.4 <span style=\"background: LightGoldenRodYellow; margin: 4px; border: 1px solid khaki\"> (<a href=\"http://terminology.hl7.org/3.1.0/CodeSystem-v3-refSeq.html\">Gene Reference Sequence Collection</a>#NM_002524.4)</span></p></blockquote><blockquote><p><b>component</b></p><p><b>code</b>: Genomic ref allele [ID] <span style=\"background: LightGoldenRodYellow; margin: 4px; border: 1px solid khaki\"> (<a href=\"https://loinc.org/\">LOINC</a>#69547-8)</span></p><p><b>value</b>: C</p></blockquote><blockquote><p><b>component</b></p><p><b>code</b>: Sample VAF <span style=\"background: LightGoldenRodYellow; margin: 4px; border: 1px solid khaki\"> (<a href=\"https://loinc.org/\">LOINC</a>#81258-6)</span></p><p><b>value</b>: 0.1793 relative frequency of a particular allele in the specimen<span style=\"background: LightGoldenRodYellow\"> (Details: UCUM code 1 = '1')</span></p></blockquote><blockquote><p><b>component</b></p><p><b>code</b>: Allelic read depth <span style=\"background: LightGoldenRodYellow; margin: 4px; border: 1px solid khaki\"> (<a href=\"https://loinc.org/\">LOINC</a>#82121-5)</span></p><p><b>value</b>: 145 reads per base pair<span style=\"background: LightGoldenRodYellow\"> (Details: UCUM code {reads}/{base} = '{reads}/{base}')</span></p></blockquote></div>"},"status":"final","category":[{"coding":[{"system":"http://terminology.hl7.org/CodeSystem/observation-category","code":"laboratory"}]}],"code":{"coding":[{"system":"http://loinc.org","code":"69548-6","display":"Genetic variant assessment"}]},"subject":{"reference":"urn:uuid:f7a438e6-f484-453d-97e8-aa4d51008648"},"performer":[{"reference":"urn:uuid:fc16d84c-8584-4e1d-baae-64e2f95bfe17"}],"valueCodeableConcept":{"coding":[{"system":"http://loinc.org","code":"LA9633-4","display":"Present"}]},"method":{"coding":[{"system":"http://loinc.org","code":"LA26398-0","display":"Sequencing"}]},"specimen":{"identifier":{"system":"http://molit.eu/fhir/genomics/NamingSystem/cegat/tissueID","value":"UNKNOWN"}},"component":[{"code":{"coding":[{"system":"http://loinc.org","code":"48002-0","display":"Genomic source class"}]},"valueCodeableConcept":{"coding":[{"system":"http://loinc.org","code":"LA6684-0","display":"Somatic"}]}},{"code":{"coding":[{"system":"http://loinc.org","code":"48018-6","display":"Gene studied [ID]"}]},"valueCodeableConcept":{"coding":[{"system":"http://www.genenames.org/geneId","code":"HGNC:7989","display":"NRAS"}]}},{"code":{"coding":[{"system":"http://loinc.org","code":"62374-4","display":"Human reference sequence assembly version"}]},"valueCodeableConcept":{"coding":[{"system":"http://loinc.org","code":"LA14029-5","display":"GRCh37"}]}},{"code":{"coding":[{"system":"http://loinc.org","code":"48004-6","display":"DNA change (c.HGVS)"}]},"valueCodeableConcept":{"coding":[{"system":"http://varnomen.hgvs.org","code":"c.34G>T","display":"c.34G>T"}]}},{"code":{"coding":[{"system":"http://loinc.org","code":"48019-4","display":"DNA change type"}]},"valueCodeableConcept":{"coding":[{"system":"http://sequenceontology.org","code":"SO:1000002","display":"substitution"}]}},{"code":{"coding":[{"system":"http://loinc.org","code":"48005-3","display":"Amino acid change (pHGVS)"}]},"valueCodeableConcept":{"coding":[{"system":"http://varnomen.hgvs.org","code":"p.G12C","display":"p.G12C"}]}},{"code":{"coding":[{"system":"http://hl7.org/fhir/uv/genomics-reporting/CodeSystem/tbd-codes-cs","code":"molecular-consequence","display":"Molecular Consequence"}]},"valueCodeableConcept":{"coding":[{"system":"http://sequenceontology.org","code":"SO:0001583","display":"missense_variant"}]}},{"code":{"coding":[{"system":"http://loinc.org","code":"51958-7","display":"Transcript reference sequence [ID]"}]},"valueCodeableConcept":{"coding":[{"system":"http://www.ncbi.nlm.nih.gov/refseq","code":"NM_002524.4","display":"NM_002524.4"}]}},{"code":{"coding":[{"system":"http://loinc.org","code":"69547-8","display":"Genomic ref allele [ID]"}]},"valueString":"C"},{"code":{"coding":[{"system":"http://loinc.org","code":"81258-6","display":"Sample VAF"}]},"valueQuantity":{"value":0.1793,"unit":"relative frequency of a particular allele in the specimen","system":"http://unitsofmeasure.org","code":"1"}},{"code":{"coding":[{"system":"http://loinc.org","code":"82121-5","display":"Allelic read depth"}]},"valueQuantity":{"value":145,"unit":"reads per base pair","system":"http://unitsofmeasure.org","code":"{reads}/{base}"}}]},"request":{"method":"POST","url":"Observation"}},{"fullUrl":"urn:uuid:842d9ab9-d940-4f0c-adf9-e5c528f5c0e5","resource":{"resourceType":"Observation","id":"Inline-Instance-for-oncology-report-example-6","meta":{"profile":["http://hl7.org/fhir/uv/genomics-reporting/StructureDefinition/variant"]},"text":{"status":"generated","div":"<div xmlns=\"http://www.w3.org/1999/xhtml\"><p><b>Generated Narrative</b></p><div style=\"display: inline-block; background-color: #d9e0e7; padding: 6px; margin: 4px; border: 1px solid #8da1b4; border-radius: 5px; line-height: 60%\"><p style=\"margin-bottom: 0px\">Resource \"Inline-Instance-for-oncology-report-example-6\" </p><p style=\"margin-bottom: 0px\">Profile: <a href=\"StructureDefinition-variant.html\">Variant</a></p></div><p><b>status</b>: final</p><p><b>category</b>: Laboratory <span style=\"background: LightGoldenRodYellow; margin: 4px; border: 1px solid khaki\"> (<a href=\"http://terminology.hl7.org/3.1.0/CodeSystem-observation-category.html\">Observation Category Codes</a>#laboratory)</span></p><p><b>code</b>: Genetic variant assessment <span style=\"background: LightGoldenRodYellow; margin: 4px; border: 1px solid khaki\"> (<a href=\"https://loinc.org/\">LOINC</a>#69548-6)</span></p><p><b>subject</b>: <a href=\"#Patient_Inline-Instance-for-oncology-report-example-2\">See above (urn:uuid:f7a438e6-f484-453d-97e8-aa4d51008648)</a></p><p><b>performer</b>: <a href=\"#Organization_Inline-Instance-for-oncology-report-example-1\">See above (urn:uuid:fc16d84c-8584-4e1d-baae-64e2f95bfe17)</a></p><p><b>value</b>: Present <span style=\"background: LightGoldenRodYellow; margin: 4px; border: 1px solid khaki\"> (<a href=\"https://loinc.org/\">LOINC</a>#LA9633-4)</span></p><p><b>method</b>: Sequencing <span style=\"background: LightGoldenRodYellow; margin: 4px; border: 1px solid khaki\"> (<a href=\"https://loinc.org/\">LOINC</a>#LA26398-0)</span></p><p><b>specimen</b>: <span></span></p><blockquote><p><b>component</b></p><p><b>code</b>: Genomic source class <span style=\"background: LightGoldenRodYellow; margin: 4px; border: 1px solid khaki\"> (<a href=\"https://loinc.org/\">LOINC</a>#48002-0)</span></p><p><b>value</b>: Somatic <span style=\"background: LightGoldenRodYellow; margin: 4px; border: 1px solid khaki\"> (<a href=\"https://loinc.org/\">LOINC</a>#LA6684-0)</span></p></blockquote><blockquote><p><b>component</b></p><p><b>code</b>: Gene studied [ID] <span style=\"background: LightGoldenRodYellow; margin: 4px; border: 1px solid khaki\"> (<a href=\"https://loinc.org/\">LOINC</a>#48018-6)</span></p><p><b>value</b>: FBXW7 <span style=\"background: LightGoldenRodYellow; margin: 4px; border: 1px solid khaki\"> (geneId#HGNC:16712)</span></p></blockquote><blockquote><p><b>component</b></p><p><b>code</b>: Human reference sequence assembly version <span style=\"background: LightGoldenRodYellow; margin: 4px; border: 1px solid khaki\"> (<a href=\"https://loinc.org/\">LOINC</a>#62374-4)</span></p><p><b>value</b>: GRCh37 <span style=\"background: LightGoldenRodYellow; margin: 4px; border: 1px solid khaki\"> (<a href=\"https://loinc.org/\">LOINC</a>#LA14029-5)</span></p></blockquote><blockquote><p><b>component</b></p><p><b>code</b>: DNA change (c.HGVS) <span style=\"background: LightGoldenRodYellow; margin: 4px; border: 1px solid khaki\"> (<a href=\"https://loinc.org/\">LOINC</a>#48004-6)</span></p><p><b>value</b>: c.1394G&gt;A <span style=\"background: LightGoldenRodYellow; margin: 4px; border: 1px solid khaki\"> (<a href=\"http://terminology.hl7.org/3.1.0/CodeSystem-v3-hgvs.html\">Human Genome Variation Society nomenclature</a>#c.1394G&gt;A)</span></p></blockquote><blockquote><p><b>component</b></p><p><b>code</b>: DNA change type <span style=\"background: LightGoldenRodYellow; margin: 4px; border: 1px solid khaki\"> (<a href=\"https://loinc.org/\">LOINC</a>#48019-4)</span></p><p><b>value</b>: substitution <span style=\"background: LightGoldenRodYellow; margin: 4px; border: 1px solid khaki\"> (sequenceontology.org#SO:1000002)</span></p></blockquote><blockquote><p><b>component</b></p><p><b>code</b>: Amino acid change (pHGVS) <span style=\"background: LightGoldenRodYellow; margin: 4px; border: 1px solid khaki\"> (<a href=\"https://loinc.org/\">LOINC</a>#48005-3)</span></p><p><b>value</b>: p.R465H <span style=\"background: LightGoldenRodYellow; margin: 4px; border: 1px solid khaki\"> (<a href=\"http://terminology.hl7.org/3.1.0/CodeSystem-v3-hgvs.html\">Human Genome Variation Society nomenclature</a>#p.R465H)</span></p></blockquote><blockquote><p><b>component</b></p><p><b>code</b>: Molecular Consequence <span style=\"background: LightGoldenRodYellow; margin: 4px; border: 1px solid khaki\"> (<a href=\"CodeSystem-tbd-codes-cs.html\">To Be Determined Codes</a>#molecular-consequence)</span></p><p><b>value</b>: missense_variant <span style=\"background: LightGoldenRodYellow; margin: 4px; border: 1px solid khaki\"> (sequenceontology.org#SO:0001583)</span></p></blockquote><blockquote><p><b>component</b></p><p><b>code</b>: Transcript reference sequence [ID] <span style=\"background: LightGoldenRodYellow; margin: 4px; border: 1px solid khaki\"> (<a href=\"https://loinc.org/\">LOINC</a>#51958-7)</span></p><p><b>value</b>: NM_001349798.2 <span style=\"background: LightGoldenRodYellow; margin: 4px; border: 1px solid khaki\"> (<a href=\"http://terminology.hl7.org/3.1.0/CodeSystem-v3-refSeq.html\">Gene Reference Sequence Collection</a>#NM_001349798.2)</span></p></blockquote><blockquote><p><b>component</b></p><p><b>code</b>: Genomic ref allele [ID] <span style=\"background: LightGoldenRodYellow; margin: 4px; border: 1px solid khaki\"> (<a href=\"https://loinc.org/\">LOINC</a>#69547-8)</span></p><p><b>value</b>: C</p></blockquote><blockquote><p><b>component</b></p><p><b>code</b>: Sample VAF <span style=\"background: LightGoldenRodYellow; margin: 4px; border: 1px solid khaki\"> (<a href=\"https://loinc.org/\">LOINC</a>#81258-6)</span></p><p><b>value</b>: 0.1053 relative frequency of a particular allele in the specimen<span style=\"background: LightGoldenRodYellow\"> (Details: UCUM code 1 = '1')</span></p></blockquote><blockquote><p><b>component</b></p><p><b>code</b>: Allelic read depth <span style=\"background: LightGoldenRodYellow; margin: 4px; border: 1px solid khaki\"> (<a href=\"https://loinc.org/\">LOINC</a>#82121-5)</span></p><p><b>value</b>: 57 reads per base pair<span style=\"background: LightGoldenRodYellow\"> (Details: UCUM code {reads}/{base} = '{reads}/{base}')</span></p></blockquote></div>"},"status":"final","category":[{"coding":[{"system":"http://terminology.hl7.org/CodeSystem/observation-category","code":"laboratory"}]}],"code":{"coding":[{"system":"http://loinc.org","code":"69548-6","display":"Genetic variant assessment"}]},"subject":{"reference":"urn:uuid:f7a438e6-f484-453d-97e8-aa4d51008648"},"performer":[{"reference":"urn:uuid:fc16d84c-8584-4e1d-baae-64e2f95bfe17"}],"valueCodeableConcept":{"coding":[{"system":"http://loinc.org","code":"LA9633-4","display":"Present"}]},"method":{"coding":[{"system":"http://loinc.org","code":"LA26398-0","display":"Sequencing"}]},"specimen":{"identifier":{"system":"http://molit.eu/fhir/genomics/NamingSystem/cegat/tissueID","value":"UNKNOWN"}},"component":[{"code":{"coding":[{"system":"http://loinc.org","code":"48002-0","display":"Genomic source class"}]},"valueCodeableConcept":{"coding":[{"system":"http://loinc.org","code":"LA6684-0","display":"Somatic"}]}},{"code":{"coding":[{"system":"http://loinc.org","code":"48018-6","display":"Gene studied [ID]"}]},"valueCodeableConcept":{"coding":[{"system":"http://www.genenames.org/geneId","code":"HGNC:16712","display":"FBXW7"}]}},{"code":{"coding":[{"system":"http://loinc.org","code":"62374-4","display":"Human reference sequence assembly version"}]},"valueCodeableConcept":{"coding":[{"system":"http://loinc.org","code":"LA14029-5","display":"GRCh37"}]}},{"code":{"coding":[{"system":"http://loinc.org","code":"48004-6","display":"DNA change (c.HGVS)"}]},"valueCodeableConcept":{"coding":[{"system":"http://varnomen.hgvs.org","code":"c.1394G>A","display":"c.1394G>A"}]}},{"code":{"coding":[{"system":"http://loinc.org","code":"48019-4","display":"DNA change type"}]},"valueCodeableConcept":{"coding":[{"system":"http://sequenceontology.org","code":"SO:1000002","display":"substitution"}]}},{"code":{"coding":[{"system":"http://loinc.org","code":"48005-3","display":"Amino acid change (pHGVS)"}]},"valueCodeableConcept":{"coding":[{"system":"http://varnomen.hgvs.org","code":"p.R465H","display":"p.R465H"}]}},{"code":{"coding":[{"system":"http://hl7.org/fhir/uv/genomics-reporting/CodeSystem/tbd-codes-cs","code":"molecular-consequence","display":"Molecular Consequence"}]},"valueCodeableConcept":{"coding":[{"system":"http://sequenceontology.org","code":"SO:0001583","display":"missense_variant"}]}},{"code":{"coding":[{"system":"http://loinc.org","code":"51958-7","display":"Transcript reference sequence [ID]"}]},"valueCodeableConcept":{"coding":[{"system":"http://www.ncbi.nlm.nih.gov/refseq","code":"NM_001349798.2","display":"NM_001349798.2"}]}},{"code":{"coding":[{"system":"http://loinc.org","code":"69547-8","display":"Genomic ref allele [ID]"}]},"valueString":"C"},{"code":{"coding":[{"system":"http://loinc.org","code":"81258-6","display":"Sample VAF"}]},"valueQuantity":{"value":0.1053,"unit":"relative frequency of a particular allele in the specimen","system":"http://unitsofmeasure.org","code":"1"}},{"code":{"coding":[{"system":"http://loinc.org","code":"82121-5","display":"Allelic read depth"}]},"valueQuantity":{"value":57,"unit":"reads per base pair","system":"http://unitsofmeasure.org","code":"{reads}/{base}"}}]},"request":{"method":"POST","url":"Observation"}},{"fullUrl":"urn:uuid:9a9f9a4a-52e3-4738-bd0b-a25374bbf358","resource":{"resourceType":"Observation","id":"Inline-Instance-for-oncology-report-example-7","meta":{"profile":["http://hl7.org/fhir/uv/genomics-reporting/StructureDefinition/variant"]},"text":{"status":"generated","div":"<div xmlns=\"http://www.w3.org/1999/xhtml\"><p><b>Generated Narrative</b></p><div style=\"display: inline-block; background-color: #d9e0e7; padding: 6px; margin: 4px; border: 1px solid #8da1b4; border-radius: 5px; line-height: 60%\"><p style=\"margin-bottom: 0px\">Resource \"Inline-Instance-for-oncology-report-example-7\" </p><p style=\"margin-bottom: 0px\">Profile: <a href=\"StructureDefinition-variant.html\">Variant</a></p></div><p><b>status</b>: final</p><p><b>category</b>: Laboratory <span style=\"background: LightGoldenRodYellow; margin: 4px; border: 1px solid khaki\"> (<a href=\"http://terminology.hl7.org/3.1.0/CodeSystem-observation-category.html\">Observation Category Codes</a>#laboratory)</span></p><p><b>code</b>: Genetic variant assessment <span style=\"background: LightGoldenRodYellow; margin: 4px; border: 1px solid khaki\"> (<a href=\"https://loinc.org/\">LOINC</a>#69548-6)</span></p><p><b>subject</b>: <a href=\"#Patient_Inline-Instance-for-oncology-report-example-2\">See above (urn:uuid:f7a438e6-f484-453d-97e8-aa4d51008648)</a></p><p><b>performer</b>: <a href=\"#Organization_Inline-Instance-for-oncology-report-example-1\">See above (urn:uuid:fc16d84c-8584-4e1d-baae-64e2f95bfe17)</a></p><p><b>value</b>: Present <span style=\"background: LightGoldenRodYellow; margin: 4px; border: 1px solid khaki\"> (<a href=\"https://loinc.org/\">LOINC</a>#LA9633-4)</span></p><p><b>method</b>: Sequencing <span style=\"background: LightGoldenRodYellow; margin: 4px; border: 1px solid khaki\"> (<a href=\"https://loinc.org/\">LOINC</a>#LA26398-0)</span></p><p><b>specimen</b>: <span></span></p><blockquote><p><b>component</b></p><p><b>code</b>: Genomic source class <span style=\"background: LightGoldenRodYellow; margin: 4px; border: 1px solid khaki\"> (<a href=\"https://loinc.org/\">LOINC</a>#48002-0)</span></p><p><b>value</b>: Somatic <span style=\"background: LightGoldenRodYellow; margin: 4px; border: 1px solid khaki\"> (<a href=\"https://loinc.org/\">LOINC</a>#LA6684-0)</span></p></blockquote><blockquote><p><b>component</b></p><p><b>code</b>: Gene studied [ID] <span style=\"background: LightGoldenRodYellow; margin: 4px; border: 1px solid khaki\"> (<a href=\"https://loinc.org/\">LOINC</a>#48018-6)</span></p><p><b>value</b>: KMT2D <span style=\"background: LightGoldenRodYellow; margin: 4px; border: 1px solid khaki\"> (geneId#HGNC:7133)</span></p></blockquote><blockquote><p><b>component</b></p><p><b>code</b>: Human reference sequence assembly version <span style=\"background: LightGoldenRodYellow; margin: 4px; border: 1px solid khaki\"> (<a href=\"https://loinc.org/\">LOINC</a>#62374-4)</span></p><p><b>value</b>: GRCh37 <span style=\"background: LightGoldenRodYellow; margin: 4px; border: 1px solid khaki\"> (<a href=\"https://loinc.org/\">LOINC</a>#LA14029-5)</span></p></blockquote><blockquote><p><b>component</b></p><p><b>code</b>: DNA change (c.HGVS) <span style=\"background: LightGoldenRodYellow; margin: 4px; border: 1px solid khaki\"> (<a href=\"https://loinc.org/\">LOINC</a>#48004-6)</span></p><p><b>value</b>: c.7900_7901delCA <span style=\"background: LightGoldenRodYellow; margin: 4px; border: 1px solid khaki\"> (<a href=\"http://terminology.hl7.org/3.1.0/CodeSystem-v3-hgvs.html\">Human Genome Variation Society nomenclature</a>#c.7900_7901delCA)</span></p></blockquote><blockquote><p><b>component</b></p><p><b>code</b>: DNA change type <span style=\"background: LightGoldenRodYellow; margin: 4px; border: 1px solid khaki\"> (<a href=\"https://loinc.org/\">LOINC</a>#48019-4)</span></p><p><b>value</b>: deletion <span style=\"background: LightGoldenRodYellow; margin: 4px; border: 1px solid khaki\"> (sequenceontology.org#SO:0000159)</span></p></blockquote><blockquote><p><b>component</b></p><p><b>code</b>: Amino acid change (pHGVS) <span style=\"background: LightGoldenRodYellow; margin: 4px; border: 1px solid khaki\"> (<a href=\"https://loinc.org/\">LOINC</a>#48005-3)</span></p><p><b>value</b>: p.Q2634Afs*20 <span style=\"background: LightGoldenRodYellow; margin: 4px; border: 1px solid khaki\"> (<a href=\"http://terminology.hl7.org/3.1.0/CodeSystem-v3-hgvs.html\">Human Genome Variation Society nomenclature</a>#p.Q2634Afs*20)</span></p></blockquote><blockquote><p><b>component</b></p><p><b>code</b>: Molecular Consequence <span style=\"background: LightGoldenRodYellow; margin: 4px; border: 1px solid khaki\"> (<a href=\"CodeSystem-tbd-codes-cs.html\">To Be Determined Codes</a>#molecular-consequence)</span></p><p><b>value</b>: frameshift <span style=\"background: LightGoldenRodYellow; margin: 4px; border: 1px solid khaki\"> (sequenceontology.org#SO:0000865)</span></p></blockquote><blockquote><p><b>component</b></p><p><b>code</b>: Transcript reference sequence [ID] <span style=\"background: LightGoldenRodYellow; margin: 4px; border: 1px solid khaki\"> (<a href=\"https://loinc.org/\">LOINC</a>#51958-7)</span></p><p><b>value</b>: NM_003482.3 <span style=\"background: LightGoldenRodYellow; margin: 4px; border: 1px solid khaki\"> (<a href=\"http://terminology.hl7.org/3.1.0/CodeSystem-v3-refSeq.html\">Gene Reference Sequence Collection</a>#NM_003482.3)</span></p></blockquote><blockquote><p><b>component</b></p><p><b>code</b>: Genomic ref allele [ID] <span style=\"background: LightGoldenRodYellow; margin: 4px; border: 1px solid khaki\"> (<a href=\"https://loinc.org/\">LOINC</a>#69547-8)</span></p><p><b>value</b>: CTG</p></blockquote><blockquote><p><b>component</b></p><p><b>code</b>: Sample VAF <span style=\"background: LightGoldenRodYellow; margin: 4px; border: 1px solid khaki\"> (<a href=\"https://loinc.org/\">LOINC</a>#81258-6)</span></p><p><b>value</b>: 0.188 relative frequency of a particular allele in the specimen<span style=\"background: LightGoldenRodYellow\"> (Details: UCUM code 1 = '1')</span></p></blockquote><blockquote><p><b>component</b></p><p><b>code</b>: Allelic read depth <span style=\"background: LightGoldenRodYellow; margin: 4px; border: 1px solid khaki\"> (<a href=\"https://loinc.org/\">LOINC</a>#82121-5)</span></p><p><b>value</b>: 117 reads per base pair<span style=\"background: LightGoldenRodYellow\"> (Details: UCUM code {reads}/{base} = '{reads}/{base}')</span></p></blockquote></div>"},"status":"final","category":[{"coding":[{"system":"http://terminology.hl7.org/CodeSystem/observation-category","code":"laboratory"}]}],"code":{"coding":[{"system":"http://loinc.org","code":"69548-6","display":"Genetic variant assessment"}]},"subject":{"reference":"urn:uuid:f7a438e6-f484-453d-97e8-aa4d51008648"},"performer":[{"reference":"urn:uuid:fc16d84c-8584-4e1d-baae-64e2f95bfe17"}],"valueCodeableConcept":{"coding":[{"system":"http://loinc.org","code":"LA9633-4","display":"Present"}]},"method":{"coding":[{"system":"http://loinc.org","code":"LA26398-0","display":"Sequencing"}]},"specimen":{"identifier":{"system":"http://molit.eu/fhir/genomics/NamingSystem/cegat/tissueID","value":"UNKNOWN"}},"component":[{"code":{"coding":[{"system":"http://loinc.org","code":"48002-0","display":"Genomic source class"}]},"valueCodeableConcept":{"coding":[{"system":"http://loinc.org","code":"LA6684-0","display":"Somatic"}]}},{"code":{"coding":[{"system":"http://loinc.org","code":"48018-6","display":"Gene studied [ID]"}]},"valueCodeableConcept":{"coding":[{"system":"http://www.genenames.org/geneId","code":"HGNC:7133","display":"KMT2D"}]}},{"code":{"coding":[{"system":"http://loinc.org","code":"62374-4","display":"Human reference sequence assembly version"}]},"valueCodeableConcept":{"coding":[{"system":"http://loinc.org","code":"LA14029-5","display":"GRCh37"}]}},{"code":{"coding":[{"system":"http://loinc.org","code":"48004-6","display":"DNA change (c.HGVS)"}]},"valueCodeableConcept":{"coding":[{"system":"http://varnomen.hgvs.org","code":"c.7900_7901delCA","display":"c.7900_7901delCA"}]}},{"code":{"coding":[{"system":"http://loinc.org","code":"48019-4","display":"DNA change type"}]},"valueCodeableConcept":{"coding":[{"system":"http://sequenceontology.org","code":"SO:0000159","display":"deletion"}]}},{"code":{"coding":[{"system":"http://loinc.org","code":"48005-3","display":"Amino acid change (pHGVS)"}]},"valueCodeableConcept":{"coding":[{"system":"http://varnomen.hgvs.org","code":"p.Q2634Afs*20","display":"p.Q2634Afs*20"}]}},{"code":{"coding":[{"system":"http://hl7.org/fhir/uv/genomics-reporting/CodeSystem/tbd-codes-cs","code":"molecular-consequence","display":"Molecular Consequence"}]},"valueCodeableConcept":{"coding":[{"system":"http://sequenceontology.org","code":"SO:0000865","display":"frameshift"}]}},{"code":{"coding":[{"system":"http://loinc.org","code":"51958-7","display":"Transcript reference sequence [ID]"}]},"valueCodeableConcept":{"coding":[{"system":"http://www.ncbi.nlm.nih.gov/refseq","code":"NM_003482.3","display":"NM_003482.3"}]}},{"code":{"coding":[{"system":"http://loinc.org","code":"69547-8","display":"Genomic ref allele [ID]"}]},"valueString":"CTG"},{"code":{"coding":[{"system":"http://loinc.org","code":"81258-6","display":"Sample VAF"}]},"valueQuantity":{"value":0.188,"unit":"relative frequency of a particular allele in the specimen","system":"http://unitsofmeasure.org","code":"1"}},{"code":{"coding":[{"system":"http://loinc.org","code":"82121-5","display":"Allelic read depth"}]},"valueQuantity":{"value":117,"unit":"reads per base pair","system":"http://unitsofmeasure.org","code":"{reads}/{base}"}}]},"request":{"method":"POST","url":"Observation"}},{"fullUrl":"urn:uuid:58828523-8893-45fc-973b-16290366c5e5","resource":{"resourceType":"Observation","id":"Inline-Instance-for-oncology-report-example-8","meta":{"profile":["http://hl7.org/fhir/uv/genomics-reporting/StructureDefinition/variant"]},"text":{"status":"generated","div":"<div xmlns=\"http://www.w3.org/1999/xhtml\"><p><b>Generated Narrative</b></p><div style=\"display: inline-block; background-color: #d9e0e7; padding: 6px; margin: 4px; border: 1px solid #8da1b4; border-radius: 5px; line-height: 60%\"><p style=\"margin-bottom: 0px\">Resource \"Inline-Instance-for-oncology-report-example-8\" </p><p style=\"margin-bottom: 0px\">Profile: <a href=\"StructureDefinition-variant.html\">Variant</a></p></div><p><b>status</b>: final</p><p><b>category</b>: Laboratory <span style=\"background: LightGoldenRodYellow; margin: 4px; border: 1px solid khaki\"> (<a href=\"http://terminology.hl7.org/3.1.0/CodeSystem-observation-category.html\">Observation Category Codes</a>#laboratory)</span></p><p><b>code</b>: Genetic variant assessment <span style=\"background: LightGoldenRodYellow; margin: 4px; border: 1px solid khaki\"> (<a href=\"https://loinc.org/\">LOINC</a>#69548-6)</span></p><p><b>subject</b>: <a href=\"#Patient_Inline-Instance-for-oncology-report-example-2\">See above (urn:uuid:f7a438e6-f484-453d-97e8-aa4d51008648)</a></p><p><b>performer</b>: <a href=\"#Organization_Inline-Instance-for-oncology-report-example-1\">See above (urn:uuid:fc16d84c-8584-4e1d-baae-64e2f95bfe17)</a></p><p><b>value</b>: Present <span style=\"background: LightGoldenRodYellow; margin: 4px; border: 1px solid khaki\"> (<a href=\"https://loinc.org/\">LOINC</a>#LA9633-4)</span></p><p><b>method</b>: Sequencing <span style=\"background: LightGoldenRodYellow; margin: 4px; border: 1px solid khaki\"> (<a href=\"https://loinc.org/\">LOINC</a>#LA26398-0)</span></p><p><b>specimen</b>: <span></span></p><blockquote><p><b>component</b></p><p><b>code</b>: Genomic source class <span style=\"background: LightGoldenRodYellow; margin: 4px; border: 1px solid khaki\"> (<a href=\"https://loinc.org/\">LOINC</a>#48002-0)</span></p><p><b>value</b>: Somatic <span style=\"background: LightGoldenRodYellow; margin: 4px; border: 1px solid khaki\"> (<a href=\"https://loinc.org/\">LOINC</a>#LA6684-0)</span></p></blockquote><blockquote><p><b>component</b></p><p><b>code</b>: Gene studied [ID] <span style=\"background: LightGoldenRodYellow; margin: 4px; border: 1px solid khaki\"> (<a href=\"https://loinc.org/\">LOINC</a>#48018-6)</span></p><p><b>value</b>: PIK3CA <span style=\"background: LightGoldenRodYellow; margin: 4px; border: 1px solid khaki\"> (geneId#HGNC:8975)</span></p></blockquote><blockquote><p><b>component</b></p><p><b>code</b>: Human reference sequence assembly version <span style=\"background: LightGoldenRodYellow; margin: 4px; border: 1px solid khaki\"> (<a href=\"https://loinc.org/\">LOINC</a>#62374-4)</span></p><p><b>value</b>: GRCh37 <span style=\"background: LightGoldenRodYellow; margin: 4px; border: 1px solid khaki\"> (<a href=\"https://loinc.org/\">LOINC</a>#LA14029-5)</span></p></blockquote><blockquote><p><b>component</b></p><p><b>code</b>: DNA change (c.HGVS) <span style=\"background: LightGoldenRodYellow; margin: 4px; border: 1px solid khaki\"> (<a href=\"https://loinc.org/\">LOINC</a>#48004-6)</span></p><p><b>value</b>: c.333G&gt;T <span style=\"background: LightGoldenRodYellow; margin: 4px; border: 1px solid khaki\"> (<a href=\"http://terminology.hl7.org/3.1.0/CodeSystem-v3-hgvs.html\">Human Genome Variation Society nomenclature</a>#c.333G&gt;T)</span></p></blockquote><blockquote><p><b>component</b></p><p><b>code</b>: DNA change type <span style=\"background: LightGoldenRodYellow; margin: 4px; border: 1px solid khaki\"> (<a href=\"https://loinc.org/\">LOINC</a>#48019-4)</span></p><p><b>value</b>: substitution <span style=\"background: LightGoldenRodYellow; margin: 4px; border: 1px solid khaki\"> (sequenceontology.org#SO:1000002)</span></p></blockquote><blockquote><p><b>component</b></p><p><b>code</b>: Amino acid change (pHGVS) <span style=\"background: LightGoldenRodYellow; margin: 4px; border: 1px solid khaki\"> (<a href=\"https://loinc.org/\">LOINC</a>#48005-3)</span></p><p><b>value</b>: p.K111N <span style=\"background: LightGoldenRodYellow; margin: 4px; border: 1px solid khaki\"> (<a href=\"http://terminology.hl7.org/3.1.0/CodeSystem-v3-hgvs.html\">Human Genome Variation Society nomenclature</a>#p.K111N)</span></p></blockquote><blockquote><p><b>component</b></p><p><b>code</b>: Molecular Consequence <span style=\"background: LightGoldenRodYellow; margin: 4px; border: 1px solid khaki\"> (<a href=\"CodeSystem-tbd-codes-cs.html\">To Be Determined Codes</a>#molecular-consequence)</span></p><p><b>value</b>: missense_variant <span style=\"background: LightGoldenRodYellow; margin: 4px; border: 1px solid khaki\"> (sequenceontology.org#SO:0001583)</span></p></blockquote><blockquote><p><b>component</b></p><p><b>code</b>: Transcript reference sequence [ID] <span style=\"background: LightGoldenRodYellow; margin: 4px; border: 1px solid khaki\"> (<a href=\"https://loinc.org/\">LOINC</a>#51958-7)</span></p><p><b>value</b>: NM_006218.3 <span style=\"background: LightGoldenRodYellow; margin: 4px; border: 1px solid khaki\"> (<a href=\"http://terminology.hl7.org/3.1.0/CodeSystem-v3-refSeq.html\">Gene Reference Sequence Collection</a>#NM_006218.3)</span></p></blockquote><blockquote><p><b>component</b></p><p><b>code</b>: Genomic ref allele [ID] <span style=\"background: LightGoldenRodYellow; margin: 4px; border: 1px solid khaki\"> (<a href=\"https://loinc.org/\">LOINC</a>#69547-8)</span></p><p><b>value</b>: G</p></blockquote><blockquote><p><b>component</b></p><p><b>code</b>: Sample VAF <span style=\"background: LightGoldenRodYellow; margin: 4px; border: 1px solid khaki\"> (<a href=\"https://loinc.org/\">LOINC</a>#81258-6)</span></p><p><b>value</b>: 0.1471 relative frequency of a particular allele in the specimen<span style=\"background: LightGoldenRodYellow\"> (Details: UCUM code 1 = '1')</span></p></blockquote><blockquote><p><b>component</b></p><p><b>code</b>: Allelic read depth <span style=\"background: LightGoldenRodYellow; margin: 4px; border: 1px solid khaki\"> (<a href=\"https://loinc.org/\">LOINC</a>#82121-5)</span></p><p><b>value</b>: 68 reads per base pair<span style=\"background: LightGoldenRodYellow\"> (Details: UCUM code {reads}/{base} = '{reads}/{base}')</span></p></blockquote></div>"},"status":"final","category":[{"coding":[{"system":"http://terminology.hl7.org/CodeSystem/observation-category","code":"laboratory"}]}],"code":{"coding":[{"system":"http://loinc.org","code":"69548-6","display":"Genetic variant assessment"}]},"subject":{"reference":"urn:uuid:f7a438e6-f484-453d-97e8-aa4d51008648"},"performer":[{"reference":"urn:uuid:fc16d84c-8584-4e1d-baae-64e2f95bfe17"}],"valueCodeableConcept":{"coding":[{"system":"http://loinc.org","code":"LA9633-4","display":"Present"}]},"method":{"coding":[{"system":"http://loinc.org","code":"LA26398-0","display":"Sequencing"}]},"specimen":{"identifier":{"system":"http://molit.eu/fhir/genomics/NamingSystem/cegat/tissueID","value":"UNKNOWN"}},"component":[{"code":{"coding":[{"system":"http://loinc.org","code":"48002-0","display":"Genomic source class"}]},"valueCodeableConcept":{"coding":[{"system":"http://loinc.org","code":"LA6684-0","display":"Somatic"}]}},{"code":{"coding":[{"system":"http://loinc.org","code":"48018-6","display":"Gene studied [ID]"}]},"valueCodeableConcept":{"coding":[{"system":"http://www.genenames.org/geneId","code":"HGNC:8975","display":"PIK3CA"}]}},{"code":{"coding":[{"system":"http://loinc.org","code":"62374-4","display":"Human reference sequence assembly version"}]},"valueCodeableConcept":{"coding":[{"system":"http://loinc.org","code":"LA14029-5","display":"GRCh37"}]}},{"code":{"coding":[{"system":"http://loinc.org","code":"48004-6","display":"DNA change (c.HGVS)"}]},"valueCodeableConcept":{"coding":[{"system":"http://varnomen.hgvs.org","code":"c.333G>T","display":"c.333G>T"}]}},{"code":{"coding":[{"system":"http://loinc.org","code":"48019-4","display":"DNA change type"}]},"valueCodeableConcept":{"coding":[{"system":"http://sequenceontology.org","code":"SO:1000002","display":"substitution"}]}},{"code":{"coding":[{"system":"http://loinc.org","code":"48005-3","display":"Amino acid change (pHGVS)"}]},"valueCodeableConcept":{"coding":[{"system":"http://varnomen.hgvs.org","code":"p.K111N","display":"p.K111N"}]}},{"code":{"coding":[{"system":"http://hl7.org/fhir/uv/genomics-reporting/CodeSystem/tbd-codes-cs","code":"molecular-consequence","display":"Molecular Consequence"}]},"valueCodeableConcept":{"coding":[{"system":"http://sequenceontology.org","code":"SO:0001583","display":"missense_variant"}]}},{"code":{"coding":[{"system":"http://loinc.org","code":"51958-7","display":"Transcript reference sequence [ID]"}]},"valueCodeableConcept":{"coding":[{"system":"http://www.ncbi.nlm.nih.gov/refseq","code":"NM_006218.3","display":"NM_006218.3"}]}},{"code":{"coding":[{"system":"http://loinc.org","code":"69547-8","display":"Genomic ref allele [ID]"}]},"valueString":"G"},{"code":{"coding":[{"system":"http://loinc.org","code":"81258-6","display":"Sample VAF"}]},"valueQuantity":{"value":0.1471,"unit":"relative frequency of a particular allele in the specimen","system":"http://unitsofmeasure.org","code":"1"}},{"code":{"coding":[{"system":"http://loinc.org","code":"82121-5","display":"Allelic read depth"}]},"valueQuantity":{"value":68,"unit":"reads per base pair","system":"http://unitsofmeasure.org","code":"{reads}/{base}"}}]},"request":{"method":"POST","url":"Observation"}},{"fullUrl":"urn:uuid:2c28b23f-3e9f-4c03-8c8f-0e76bc5dc9c2","resource":{"resourceType":"Observation","id":"Inline-Instance-for-oncology-report-example-9","meta":{"profile":["http://hl7.org/fhir/uv/genomics-reporting/StructureDefinition/variant"]},"text":{"status":"generated","div":"<div xmlns=\"http://www.w3.org/1999/xhtml\"><p><b>Generated Narrative</b></p><div style=\"display: inline-block; background-color: #d9e0e7; padding: 6px; margin: 4px; border: 1px solid #8da1b4; border-radius: 5px; line-height: 60%\"><p style=\"margin-bottom: 0px\">Resource \"Inline-Instance-for-oncology-report-example-9\" </p><p style=\"margin-bottom: 0px\">Profile: <a href=\"StructureDefinition-variant.html\">Variant</a></p></div><p><b>status</b>: final</p><p><b>category</b>: Laboratory <span style=\"background: LightGoldenRodYellow; margin: 4px; border: 1px solid khaki\"> (<a href=\"http://terminology.hl7.org/3.1.0/CodeSystem-observation-category.html\">Observation Category Codes</a>#laboratory)</span></p><p><b>code</b>: Genetic variant assessment <span style=\"background: LightGoldenRodYellow; margin: 4px; border: 1px solid khaki\"> (<a href=\"https://loinc.org/\">LOINC</a>#69548-6)</span></p><p><b>subject</b>: <a href=\"#Patient_Inline-Instance-for-oncology-report-example-2\">See above (urn:uuid:f7a438e6-f484-453d-97e8-aa4d51008648)</a></p><p><b>performer</b>: <a href=\"#Organization_Inline-Instance-for-oncology-report-example-1\">See above (urn:uuid:fc16d84c-8584-4e1d-baae-64e2f95bfe17)</a></p><p><b>value</b>: Present <span style=\"background: LightGoldenRodYellow; margin: 4px; border: 1px solid khaki\"> (<a href=\"https://loinc.org/\">LOINC</a>#LA9633-4)</span></p><p><b>method</b>: Sequencing <span style=\"background: LightGoldenRodYellow; margin: 4px; border: 1px solid khaki\"> (<a href=\"https://loinc.org/\">LOINC</a>#LA26398-0)</span></p><p><b>specimen</b>: <span></span></p><blockquote><p><b>component</b></p><p><b>code</b>: Genomic source class <span style=\"background: LightGoldenRodYellow; margin: 4px; border: 1px solid khaki\"> (<a href=\"https://loinc.org/\">LOINC</a>#48002-0)</span></p><p><b>value</b>: Somatic <span style=\"background: LightGoldenRodYellow; margin: 4px; border: 1px solid khaki\"> (<a href=\"https://loinc.org/\">LOINC</a>#LA6684-0)</span></p></blockquote><blockquote><p><b>component</b></p><p><b>code</b>: Gene studied [ID] <span style=\"background: LightGoldenRodYellow; margin: 4px; border: 1px solid khaki\"> (<a href=\"https://loinc.org/\">LOINC</a>#48018-6)</span></p><p><b>value</b>: IRS2 <span style=\"background: LightGoldenRodYellow; margin: 4px; border: 1px solid khaki\"> (geneId#HGNC:6126)</span></p></blockquote><blockquote><p><b>component</b></p><p><b>code</b>: Human reference sequence assembly version <span style=\"background: LightGoldenRodYellow; margin: 4px; border: 1px solid khaki\"> (<a href=\"https://loinc.org/\">LOINC</a>#62374-4)</span></p><p><b>value</b>: GRCh37 <span style=\"background: LightGoldenRodYellow; margin: 4px; border: 1px solid khaki\"> (<a href=\"https://loinc.org/\">LOINC</a>#LA14029-5)</span></p></blockquote><blockquote><p><b>component</b></p><p><b>code</b>: DNA change (c.HGVS) <span style=\"background: LightGoldenRodYellow; margin: 4px; border: 1px solid khaki\"> (<a href=\"https://loinc.org/\">LOINC</a>#48004-6)</span></p><p><b>value</b>: c.3960C&gt;T <span style=\"background: LightGoldenRodYellow; margin: 4px; border: 1px solid khaki\"> (<a href=\"http://terminology.hl7.org/3.1.0/CodeSystem-v3-hgvs.html\">Human Genome Variation Society nomenclature</a>#c.3960C&gt;T)</span></p></blockquote><blockquote><p><b>component</b></p><p><b>code</b>: DNA change type <span style=\"background: LightGoldenRodYellow; margin: 4px; border: 1px solid khaki\"> (<a href=\"https://loinc.org/\">LOINC</a>#48019-4)</span></p><p><b>value</b>: substitution <span style=\"background: LightGoldenRodYellow; margin: 4px; border: 1px solid khaki\"> (sequenceontology.org#SO:1000002)</span></p></blockquote><blockquote><p><b>component</b></p><p><b>code</b>: Amino acid change (pHGVS) <span style=\"background: LightGoldenRodYellow; margin: 4px; border: 1px solid khaki\"> (<a href=\"https://loinc.org/\">LOINC</a>#48005-3)</span></p><p><b>value</b>: p.= <span style=\"background: LightGoldenRodYellow; margin: 4px; border: 1px solid khaki\"> (<a href=\"http://terminology.hl7.org/3.1.0/CodeSystem-v3-hgvs.html\">Human Genome Variation Society nomenclature</a>#p.=)</span></p></blockquote><blockquote><p><b>component</b></p><p><b>code</b>: Molecular Consequence <span style=\"background: LightGoldenRodYellow; margin: 4px; border: 1px solid khaki\"> (<a href=\"CodeSystem-tbd-codes-cs.html\">To Be Determined Codes</a>#molecular-consequence)</span></p><p><b>value</b>: synonymous_variant <span style=\"background: LightGoldenRodYellow; margin: 4px; border: 1px solid khaki\"> (sequenceontology.org#SO:0001819)</span></p></blockquote><blockquote><p><b>component</b></p><p><b>code</b>: Transcript reference sequence [ID] <span style=\"background: LightGoldenRodYellow; margin: 4px; border: 1px solid khaki\"> (<a href=\"https://loinc.org/\">LOINC</a>#51958-7)</span></p><p><b>value</b>: NM_003749.2 <span style=\"background: LightGoldenRodYellow; margin: 4px; border: 1px solid khaki\"> (<a href=\"http://terminology.hl7.org/3.1.0/CodeSystem-v3-refSeq.html\">Gene Reference Sequence Collection</a>#NM_003749.2)</span></p></blockquote><blockquote><p><b>component</b></p><p><b>code</b>: Genomic ref allele [ID] <span style=\"background: LightGoldenRodYellow; margin: 4px; border: 1px solid khaki\"> (<a href=\"https://loinc.org/\">LOINC</a>#69547-8)</span></p><p><b>value</b>: G</p></blockquote><blockquote><p><b>component</b></p><p><b>code</b>: Sample VAF <span style=\"background: LightGoldenRodYellow; margin: 4px; border: 1px solid khaki\"> (<a href=\"https://loinc.org/\">LOINC</a>#81258-6)</span></p><p><b>value</b>: 0.1343 relative frequency of a particular allele in the specimen<span style=\"background: LightGoldenRodYellow\"> (Details: UCUM code 1 = '1')</span></p></blockquote><blockquote><p><b>component</b></p><p><b>code</b>: Allelic read depth <span style=\"background: LightGoldenRodYellow; margin: 4px; border: 1px solid khaki\"> (<a href=\"https://loinc.org/\">LOINC</a>#82121-5)</span></p><p><b>value</b>: 134 reads per base pair<span style=\"background: LightGoldenRodYellow\"> (Details: UCUM code {reads}/{base} = '{reads}/{base}')</span></p></blockquote></div>"},"status":"final","category":[{"coding":[{"system":"http://terminology.hl7.org/CodeSystem/observation-category","code":"laboratory"}]}],"code":{"coding":[{"system":"http://loinc.org","code":"69548-6","display":"Genetic variant assessment"}]},"subject":{"reference":"urn:uuid:f7a438e6-f484-453d-97e8-aa4d51008648"},"performer":[{"reference":"urn:uuid:fc16d84c-8584-4e1d-baae-64e2f95bfe17"}],"valueCodeableConcept":{"coding":[{"system":"http://loinc.org","code":"LA9633-4","display":"Present"}]},"method":{"coding":[{"system":"http://loinc.org","code":"LA26398-0","display":"Sequencing"}]},"specimen":{"identifier":{"system":"http://molit.eu/fhir/genomics/NamingSystem/cegat/tissueID","value":"UNKNOWN"}},"component":[{"code":{"coding":[{"system":"http://loinc.org","code":"48002-0","display":"Genomic source class"}]},"valueCodeableConcept":{"coding":[{"system":"http://loinc.org","code":"LA6684-0","display":"Somatic"}]}},{"code":{"coding":[{"system":"http://loinc.org","code":"48018-6","display":"Gene studied [ID]"}]},"valueCodeableConcept":{"coding":[{"system":"http://www.genenames.org/geneId","code":"HGNC:6126","display":"IRS2"}]}},{"code":{"coding":[{"system":"http://loinc.org","code":"62374-4","display":"Human reference sequence assembly version"}]},"valueCodeableConcept":{"coding":[{"system":"http://loinc.org","code":"LA14029-5","display":"GRCh37"}]}},{"code":{"coding":[{"system":"http://loinc.org","code":"48004-6","display":"DNA change (c.HGVS)"}]},"valueCodeableConcept":{"coding":[{"system":"http://varnomen.hgvs.org","code":"c.3960C>T","display":"c.3960C>T"}]}},{"code":{"coding":[{"system":"http://loinc.org","code":"48019-4","display":"DNA change type"}]},"valueCodeableConcept":{"coding":[{"system":"http://sequenceontology.org","code":"SO:1000002","display":"substitution"}]}},{"code":{"coding":[{"system":"http://loinc.org","code":"48005-3","display":"Amino acid change (pHGVS)"}]},"valueCodeableConcept":{"coding":[{"system":"http://varnomen.hgvs.org","code":"p.=","display":"p.="}]}},{"code":{"coding":[{"system":"http://hl7.org/fhir/uv/genomics-reporting/CodeSystem/tbd-codes-cs","code":"molecular-consequence","display":"Molecular Consequence"}]},"valueCodeableConcept":{"coding":[{"system":"http://sequenceontology.org","code":"SO:0001819","display":"synonymous_variant"}]}},{"code":{"coding":[{"system":"http://loinc.org","code":"51958-7","display":"Transcript reference sequence [ID]"}]},"valueCodeableConcept":{"coding":[{"system":"http://www.ncbi.nlm.nih.gov/refseq","code":"NM_003749.2","display":"NM_003749.2"}]}},{"code":{"coding":[{"system":"http://loinc.org","code":"69547-8","display":"Genomic ref allele [ID]"}]},"valueString":"G"},{"code":{"coding":[{"system":"http://loinc.org","code":"81258-6","display":"Sample VAF"}]},"valueQuantity":{"value":0.1343,"unit":"relative frequency of a particular allele in the specimen","system":"http://unitsofmeasure.org","code":"1"}},{"code":{"coding":[{"system":"http://loinc.org","code":"82121-5","display":"Allelic read depth"}]},"valueQuantity":{"value":134,"unit":"reads per base pair","system":"http://unitsofmeasure.org","code":"{reads}/{base}"}}]},"request":{"method":"POST","url":"Observation"}},{"fullUrl":"urn:uuid:41bebbe5-e06f-4867-aa22-7c06db69dbd1","resource":{"resourceType":"Observation","id":"Inline-Instance-for-oncology-report-example-10","meta":{"profile":["http://hl7.org/fhir/uv/genomics-reporting/StructureDefinition/variant"]},"text":{"status":"generated","div":"<div xmlns=\"http://www.w3.org/1999/xhtml\"><p><b>Generated Narrative</b></p><div style=\"display: inline-block; background-color: #d9e0e7; padding: 6px; margin: 4px; border: 1px solid #8da1b4; border-radius: 5px; line-height: 60%\"><p style=\"margin-bottom: 0px\">Resource \"Inline-Instance-for-oncology-report-example-10\" </p><p style=\"margin-bottom: 0px\">Profile: <a href=\"StructureDefinition-variant.html\">Variant</a></p></div><p><b>status</b>: final</p><p><b>category</b>: Laboratory <span style=\"background: LightGoldenRodYellow; margin: 4px; border: 1px solid khaki\"> (<a href=\"http://terminology.hl7.org/3.1.0/CodeSystem-observation-category.html\">Observation Category Codes</a>#laboratory)</span></p><p><b>code</b>: Genetic variant assessment <span style=\"background: LightGoldenRodYellow; margin: 4px; border: 1px solid khaki\"> (<a href=\"https://loinc.org/\">LOINC</a>#69548-6)</span></p><p><b>subject</b>: <a href=\"#Patient_Inline-Instance-for-oncology-report-example-2\">See above (urn:uuid:f7a438e6-f484-453d-97e8-aa4d51008648)</a></p><p><b>performer</b>: <a href=\"#Organization_Inline-Instance-for-oncology-report-example-1\">See above (urn:uuid:fc16d84c-8584-4e1d-baae-64e2f95bfe17)</a></p><p><b>value</b>: Present <span style=\"background: LightGoldenRodYellow; margin: 4px; border: 1px solid khaki\"> (<a href=\"https://loinc.org/\">LOINC</a>#LA9633-4)</span></p><p><b>method</b>: Sequencing <span style=\"background: LightGoldenRodYellow; margin: 4px; border: 1px solid khaki\"> (<a href=\"https://loinc.org/\">LOINC</a>#LA26398-0)</span></p><p><b>specimen</b>: <span></span></p><blockquote><p><b>component</b></p><p><b>code</b>: Genomic source class <span style=\"background: LightGoldenRodYellow; margin: 4px; border: 1px solid khaki\"> (<a href=\"https://loinc.org/\">LOINC</a>#48002-0)</span></p><p><b>value</b>: Somatic <span style=\"background: LightGoldenRodYellow; margin: 4px; border: 1px solid khaki\"> (<a href=\"https://loinc.org/\">LOINC</a>#LA6684-0)</span></p></blockquote><blockquote><p><b>component</b></p><p><b>code</b>: Gene studied [ID] <span style=\"background: LightGoldenRodYellow; margin: 4px; border: 1px solid khaki\"> (<a href=\"https://loinc.org/\">LOINC</a>#48018-6)</span></p><p><b>value</b>: CDKN2A <span style=\"background: LightGoldenRodYellow; margin: 4px; border: 1px solid khaki\"> (geneId#HGNC:1787)</span></p></blockquote><blockquote><p><b>component</b></p><p><b>code</b>: Human reference sequence assembly version <span style=\"background: LightGoldenRodYellow; margin: 4px; border: 1px solid khaki\"> (<a href=\"https://loinc.org/\">LOINC</a>#62374-4)</span></p><p><b>value</b>: GRCh37 <span style=\"background: LightGoldenRodYellow; margin: 4px; border: 1px solid khaki\"> (<a href=\"https://loinc.org/\">LOINC</a>#LA14029-5)</span></p></blockquote><blockquote><p><b>component</b></p><p><b>code</b>: DNA change (c.HGVS) <span style=\"background: LightGoldenRodYellow; margin: 4px; border: 1px solid khaki\"> (<a href=\"https://loinc.org/\">LOINC</a>#48004-6)</span></p><p><b>value</b>: c.9_32del <span style=\"background: LightGoldenRodYellow; margin: 4px; border: 1px solid khaki\"> (<a href=\"http://terminology.hl7.org/3.1.0/CodeSystem-v3-hgvs.html\">Human Genome Variation Society nomenclature</a>#c.9_32del)</span></p></blockquote><blockquote><p><b>component</b></p><p><b>code</b>: DNA change type <span style=\"background: LightGoldenRodYellow; margin: 4px; border: 1px solid khaki\"> (<a href=\"https://loinc.org/\">LOINC</a>#48019-4)</span></p><p><b>value</b>: deletion <span style=\"background: LightGoldenRodYellow; margin: 4px; border: 1px solid khaki\"> (sequenceontology.org#SO:0000159)</span></p></blockquote><blockquote><p><b>component</b></p><p><b>code</b>: Amino acid change (pHGVS) <span style=\"background: LightGoldenRodYellow; margin: 4px; border: 1px solid khaki\"> (<a href=\"https://loinc.org/\">LOINC</a>#48005-3)</span></p><p><b>value</b>: p.A4_P11del <span style=\"background: LightGoldenRodYellow; margin: 4px; border: 1px solid khaki\"> (<a href=\"http://terminology.hl7.org/3.1.0/CodeSystem-v3-hgvs.html\">Human Genome Variation Society nomenclature</a>#p.A4_P11del)</span></p></blockquote><blockquote><p><b>component</b></p><p><b>code</b>: Molecular Consequence <span style=\"background: LightGoldenRodYellow; margin: 4px; border: 1px solid khaki\"> (<a href=\"CodeSystem-tbd-codes-cs.html\">To Be Determined Codes</a>#molecular-consequence)</span></p><p><b>value</b>: inframe_variant <span style=\"background: LightGoldenRodYellow; margin: 4px; border: 1px solid khaki\"> (sequenceontology.org#SO:0001650)</span></p></blockquote><blockquote><p><b>component</b></p><p><b>code</b>: Transcript reference sequence [ID] <span style=\"background: LightGoldenRodYellow; margin: 4px; border: 1px solid khaki\"> (<a href=\"https://loinc.org/\">LOINC</a>#51958-7)</span></p><p><b>value</b>: NM_000077.4 <span style=\"background: LightGoldenRodYellow; margin: 4px; border: 1px solid khaki\"> (<a href=\"http://terminology.hl7.org/3.1.0/CodeSystem-v3-refSeq.html\">Gene Reference Sequence Collection</a>#NM_000077.4)</span></p></blockquote><blockquote><p><b>component</b></p><p><b>code</b>: Genomic ref allele [ID] <span style=\"background: LightGoldenRodYellow; margin: 4px; border: 1px solid khaki\"> (<a href=\"https://loinc.org/\">LOINC</a>#69547-8)</span></p><p><b>value</b>: AGGCTCCATGCTGCTCCCCGCCGCC</p></blockquote><blockquote><p><b>component</b></p><p><b>code</b>: Sample VAF <span style=\"background: LightGoldenRodYellow; margin: 4px; border: 1px solid khaki\"> (<a href=\"https://loinc.org/\">LOINC</a>#81258-6)</span></p><p><b>value</b>: 0.0536 relative frequency of a particular allele in the specimen<span style=\"background: LightGoldenRodYellow\"> (Details: UCUM code 1 = '1')</span></p></blockquote><blockquote><p><b>component</b></p><p><b>code</b>: Allelic read depth <span style=\"background: LightGoldenRodYellow; margin: 4px; border: 1px solid khaki\"> (<a href=\"https://loinc.org/\">LOINC</a>#82121-5)</span></p><p><b>value</b>: 112 reads per base pair<span style=\"background: LightGoldenRodYellow\"> (Details: UCUM code {reads}/{base} = '{reads}/{base}')</span></p></blockquote></div>"},"status":"final","category":[{"coding":[{"system":"http://terminology.hl7.org/CodeSystem/observation-category","code":"laboratory"}]}],"code":{"coding":[{"system":"http://loinc.org","code":"69548-6","display":"Genetic variant assessment"}]},"subject":{"reference":"urn:uuid:f7a438e6-f484-453d-97e8-aa4d51008648"},"performer":[{"reference":"urn:uuid:fc16d84c-8584-4e1d-baae-64e2f95bfe17"}],"valueCodeableConcept":{"coding":[{"system":"http://loinc.org","code":"LA9633-4","display":"Present"}]},"method":{"coding":[{"system":"http://loinc.org","code":"LA26398-0","display":"Sequencing"}]},"specimen":{"identifier":{"system":"http://molit.eu/fhir/genomics/NamingSystem/cegat/tissueID","value":"UNKNOWN"}},"component":[{"code":{"coding":[{"system":"http://loinc.org","code":"48002-0","display":"Genomic source class"}]},"valueCodeableConcept":{"coding":[{"system":"http://loinc.org","code":"LA6684-0","display":"Somatic"}]}},{"code":{"coding":[{"system":"http://loinc.org","code":"48018-6","display":"Gene studied [ID]"}]},"valueCodeableConcept":{"coding":[{"system":"http://www.genenames.org/geneId","code":"HGNC:1787","display":"CDKN2A"}]}},{"code":{"coding":[{"system":"http://loinc.org","code":"62374-4","display":"Human reference sequence assembly version"}]},"valueCodeableConcept":{"coding":[{"system":"http://loinc.org","code":"LA14029-5","display":"GRCh37"}]}},{"code":{"coding":[{"system":"http://loinc.org","code":"48004-6","display":"DNA change (c.HGVS)"}]},"valueCodeableConcept":{"coding":[{"system":"http://varnomen.hgvs.org","code":"c.9_32del","display":"c.9_32del"}]}},{"code":{"coding":[{"system":"http://loinc.org","code":"48019-4","display":"DNA change type"}]},"valueCodeableConcept":{"coding":[{"system":"http://sequenceontology.org","code":"SO:0000159","display":"deletion"}]}},{"code":{"coding":[{"system":"http://loinc.org","code":"48005-3","display":"Amino acid change (pHGVS)"}]},"valueCodeableConcept":{"coding":[{"system":"http://varnomen.hgvs.org","code":"p.A4_P11del","display":"p.A4_P11del"}]}},{"code":{"coding":[{"system":"http://hl7.org/fhir/uv/genomics-reporting/CodeSystem/tbd-codes-cs","code":"molecular-consequence","display":"Molecular Consequence"}]},"valueCodeableConcept":{"coding":[{"system":"http://sequenceontology.org","code":"SO:0001650","display":"inframe_variant"}]}},{"code":{"coding":[{"system":"http://loinc.org","code":"51958-7","display":"Transcript reference sequence [ID]"}]},"valueCodeableConcept":{"coding":[{"system":"http://www.ncbi.nlm.nih.gov/refseq","code":"NM_000077.4","display":"NM_000077.4"}]}},{"code":{"coding":[{"system":"http://loinc.org","code":"69547-8","display":"Genomic ref allele [ID]"}]},"valueString":"AGGCTCCATGCTGCTCCCCGCCGCC"},{"code":{"coding":[{"system":"http://loinc.org","code":"81258-6","display":"Sample VAF"}]},"valueQuantity":{"value":0.0536,"unit":"relative frequency of a particular allele in the specimen","system":"http://unitsofmeasure.org","code":"1"}},{"code":{"coding":[{"system":"http://loinc.org","code":"82121-5","display":"Allelic read depth"}]},"valueQuantity":{"value":112,"unit":"reads per base pair","system":"http://unitsofmeasure.org","code":"{reads}/{base}"}}]},"request":{"method":"POST","url":"Observation"}},{"fullUrl":"urn:uuid:1642f190-e2c6-4999-8040-b9b2a70618bf","resource":{"resourceType":"Observation","id":"Inline-Instance-for-oncology-report-example-11","meta":{"profile":["http://hl7.org/fhir/uv/genomics-reporting/StructureDefinition/variant"]},"text":{"status":"generated","div":"<div xmlns=\"http://www.w3.org/1999/xhtml\"><p><b>Generated Narrative</b></p><div style=\"display: inline-block; background-color: #d9e0e7; padding: 6px; margin: 4px; border: 1px solid #8da1b4; border-radius: 5px; line-height: 60%\"><p style=\"margin-bottom: 0px\">Resource \"Inline-Instance-for-oncology-report-example-11\" </p><p style=\"margin-bottom: 0px\">Profile: <a href=\"StructureDefinition-variant.html\">Variant</a></p></div><p><b>status</b>: final</p><p><b>category</b>: Laboratory <span style=\"background: LightGoldenRodYellow; margin: 4px; border: 1px solid khaki\"> (<a href=\"http://terminology.hl7.org/3.1.0/CodeSystem-observation-category.html\">Observation Category Codes</a>#laboratory)</span></p><p><b>code</b>: Genetic variant assessment <span style=\"background: LightGoldenRodYellow; margin: 4px; border: 1px solid khaki\"> (<a href=\"https://loinc.org/\">LOINC</a>#69548-6)</span></p><p><b>subject</b>: <a href=\"#Patient_Inline-Instance-for-oncology-report-example-2\">See above (urn:uuid:f7a438e6-f484-453d-97e8-aa4d51008648)</a></p><p><b>performer</b>: <a href=\"#Organization_Inline-Instance-for-oncology-report-example-1\">See above (urn:uuid:fc16d84c-8584-4e1d-baae-64e2f95bfe17)</a></p><p><b>value</b>: Present <span style=\"background: LightGoldenRodYellow; margin: 4px; border: 1px solid khaki\"> (<a href=\"https://loinc.org/\">LOINC</a>#LA9633-4)</span></p><p><b>method</b>: Sequencing <span style=\"background: LightGoldenRodYellow; margin: 4px; border: 1px solid khaki\"> (<a href=\"https://loinc.org/\">LOINC</a>#LA26398-0)</span></p><p><b>specimen</b>: <span></span></p><blockquote><p><b>component</b></p><p><b>code</b>: Genomic source class <span style=\"background: LightGoldenRodYellow; margin: 4px; border: 1px solid khaki\"> (<a href=\"https://loinc.org/\">LOINC</a>#48002-0)</span></p><p><b>value</b>: Somatic <span style=\"background: LightGoldenRodYellow; margin: 4px; border: 1px solid khaki\"> (<a href=\"https://loinc.org/\">LOINC</a>#LA6684-0)</span></p></blockquote><blockquote><p><b>component</b></p><p><b>code</b>: Gene studied [ID] <span style=\"background: LightGoldenRodYellow; margin: 4px; border: 1px solid khaki\"> (<a href=\"https://loinc.org/\">LOINC</a>#48018-6)</span></p><p><b>value</b>: RECQL4 <span style=\"background: LightGoldenRodYellow; margin: 4px; border: 1px solid khaki\"> (geneId#HGNC:9949)</span></p></blockquote><blockquote><p><b>component</b></p><p><b>code</b>: Human reference sequence assembly version <span style=\"background: LightGoldenRodYellow; margin: 4px; border: 1px solid khaki\"> (<a href=\"https://loinc.org/\">LOINC</a>#62374-4)</span></p><p><b>value</b>: GRCh37 <span style=\"background: LightGoldenRodYellow; margin: 4px; border: 1px solid khaki\"> (<a href=\"https://loinc.org/\">LOINC</a>#LA14029-5)</span></p></blockquote><blockquote><p><b>component</b></p><p><b>code</b>: DNA change (c.HGVS) <span style=\"background: LightGoldenRodYellow; margin: 4px; border: 1px solid khaki\"> (<a href=\"https://loinc.org/\">LOINC</a>#48004-6)</span></p><p><b>value</b>: c.2086C&gt;T <span style=\"background: LightGoldenRodYellow; margin: 4px; border: 1px solid khaki\"> (<a href=\"http://terminology.hl7.org/3.1.0/CodeSystem-v3-hgvs.html\">Human Genome Variation Society nomenclature</a>#c.2086C&gt;T)</span></p></blockquote><blockquote><p><b>component</b></p><p><b>code</b>: DNA change type <span style=\"background: LightGoldenRodYellow; margin: 4px; border: 1px solid khaki\"> (<a href=\"https://loinc.org/\">LOINC</a>#48019-4)</span></p><p><b>value</b>: substitution <span style=\"background: LightGoldenRodYellow; margin: 4px; border: 1px solid khaki\"> (sequenceontology.org#SO:1000002)</span></p></blockquote><blockquote><p><b>component</b></p><p><b>code</b>: Amino acid change (pHGVS) <span style=\"background: LightGoldenRodYellow; margin: 4px; border: 1px solid khaki\"> (<a href=\"https://loinc.org/\">LOINC</a>#48005-3)</span></p><p><b>value</b>: p.R696C <span style=\"background: LightGoldenRodYellow; margin: 4px; border: 1px solid khaki\"> (<a href=\"http://terminology.hl7.org/3.1.0/CodeSystem-v3-hgvs.html\">Human Genome Variation Society nomenclature</a>#p.R696C)</span></p></blockquote><blockquote><p><b>component</b></p><p><b>code</b>: Molecular Consequence <span style=\"background: LightGoldenRodYellow; margin: 4px; border: 1px solid khaki\"> (<a href=\"CodeSystem-tbd-codes-cs.html\">To Be Determined Codes</a>#molecular-consequence)</span></p><p><b>value</b>: missense_variant <span style=\"background: LightGoldenRodYellow; margin: 4px; border: 1px solid khaki\"> (sequenceontology.org#SO:0001583)</span></p></blockquote><blockquote><p><b>component</b></p><p><b>code</b>: Transcript reference sequence [ID] <span style=\"background: LightGoldenRodYellow; margin: 4px; border: 1px solid khaki\"> (<a href=\"https://loinc.org/\">LOINC</a>#51958-7)</span></p><p><b>value</b>: NM_004260.3 <span style=\"background: LightGoldenRodYellow; margin: 4px; border: 1px solid khaki\"> (<a href=\"http://terminology.hl7.org/3.1.0/CodeSystem-v3-refSeq.html\">Gene Reference Sequence Collection</a>#NM_004260.3)</span></p></blockquote><blockquote><p><b>component</b></p><p><b>code</b>: Genomic ref allele [ID] <span style=\"background: LightGoldenRodYellow; margin: 4px; border: 1px solid khaki\"> (<a href=\"https://loinc.org/\">LOINC</a>#69547-8)</span></p><p><b>value</b>: G</p></blockquote><blockquote><p><b>component</b></p><p><b>code</b>: Sample VAF <span style=\"background: LightGoldenRodYellow; margin: 4px; border: 1px solid khaki\"> (<a href=\"https://loinc.org/\">LOINC</a>#81258-6)</span></p><p><b>value</b>: 0.2568 relative frequency of a particular allele in the specimen<span style=\"background: LightGoldenRodYellow\"> (Details: UCUM code 1 = '1')</span></p></blockquote><blockquote><p><b>component</b></p><p><b>code</b>: Allelic read depth <span style=\"background: LightGoldenRodYellow; margin: 4px; border: 1px solid khaki\"> (<a href=\"https://loinc.org/\">LOINC</a>#82121-5)</span></p><p><b>value</b>: 148 reads per base pair<span style=\"background: LightGoldenRodYellow\"> (Details: UCUM code {reads}/{base} = '{reads}/{base}')</span></p></blockquote></div>"},"status":"final","category":[{"coding":[{"system":"http://terminology.hl7.org/CodeSystem/observation-category","code":"laboratory"}]}],"code":{"coding":[{"system":"http://loinc.org","code":"69548-6","display":"Genetic variant assessment"}]},"subject":{"reference":"urn:uuid:f7a438e6-f484-453d-97e8-aa4d51008648"},"performer":[{"reference":"urn:uuid:fc16d84c-8584-4e1d-baae-64e2f95bfe17"}],"valueCodeableConcept":{"coding":[{"system":"http://loinc.org","code":"LA9633-4","display":"Present"}]},"method":{"coding":[{"system":"http://loinc.org","code":"LA26398-0","display":"Sequencing"}]},"specimen":{"identifier":{"system":"http://molit.eu/fhir/genomics/NamingSystem/cegat/tissueID","value":"UNKNOWN"}},"component":[{"code":{"coding":[{"system":"http://loinc.org","code":"48002-0","display":"Genomic source class"}]},"valueCodeableConcept":{"coding":[{"system":"http://loinc.org","code":"LA6684-0","display":"Somatic"}]}},{"code":{"coding":[{"system":"http://loinc.org","code":"48018-6","display":"Gene studied [ID]"}]},"valueCodeableConcept":{"coding":[{"system":"http://www.genenames.org/geneId","code":"HGNC:9949","display":"RECQL4"}]}},{"code":{"coding":[{"system":"http://loinc.org","code":"62374-4","display":"Human reference sequence assembly version"}]},"valueCodeableConcept":{"coding":[{"system":"http://loinc.org","code":"LA14029-5","display":"GRCh37"}]}},{"code":{"coding":[{"system":"http://loinc.org","code":"48004-6","display":"DNA change (c.HGVS)"}]},"valueCodeableConcept":{"coding":[{"system":"http://varnomen.hgvs.org","code":"c.2086C>T","display":"c.2086C>T"}]}},{"code":{"coding":[{"system":"http://loinc.org","code":"48019-4","display":"DNA change type"}]},"valueCodeableConcept":{"coding":[{"system":"http://sequenceontology.org","code":"SO:1000002","display":"substitution"}]}},{"code":{"coding":[{"system":"http://loinc.org","code":"48005-3","display":"Amino acid change (pHGVS)"}]},"valueCodeableConcept":{"coding":[{"system":"http://varnomen.hgvs.org","code":"p.R696C","display":"p.R696C"}]}},{"code":{"coding":[{"system":"http://hl7.org/fhir/uv/genomics-reporting/CodeSystem/tbd-codes-cs","code":"molecular-consequence","display":"Molecular Consequence"}]},"valueCodeableConcept":{"coding":[{"system":"http://sequenceontology.org","code":"SO:0001583","display":"missense_variant"}]}},{"code":{"coding":[{"system":"http://loinc.org","code":"51958-7","display":"Transcript reference sequence [ID]"}]},"valueCodeableConcept":{"coding":[{"system":"http://www.ncbi.nlm.nih.gov/refseq","code":"NM_004260.3","display":"NM_004260.3"}]}},{"code":{"coding":[{"system":"http://loinc.org","code":"69547-8","display":"Genomic ref allele [ID]"}]},"valueString":"G"},{"code":{"coding":[{"system":"http://loinc.org","code":"81258-6","display":"Sample VAF"}]},"valueQuantity":{"value":0.2568,"unit":"relative frequency of a particular allele in the specimen","system":"http://unitsofmeasure.org","code":"1"}},{"code":{"coding":[{"system":"http://loinc.org","code":"82121-5","display":"Allelic read depth"}]},"valueQuantity":{"value":148,"unit":"reads per base pair","system":"http://unitsofmeasure.org","code":"{reads}/{base}"}}]},"request":{"method":"POST","url":"Observation"}},{"fullUrl":"urn:uuid:c3587931-242f-4129-93f9-be24500c8f29","resource":{"resourceType":"Observation","id":"Inline-Instance-for-oncology-report-example-12","meta":{"profile":["http://hl7.org/fhir/uv/genomics-reporting/StructureDefinition/variant"]},"text":{"status":"generated","div":"<div xmlns=\"http://www.w3.org/1999/xhtml\"><p><b>Generated Narrative</b></p><div style=\"display: inline-block; background-color: #d9e0e7; padding: 6px; margin: 4px; border: 1px solid #8da1b4; border-radius: 5px; line-height: 60%\"><p style=\"margin-bottom: 0px\">Resource \"Inline-Instance-for-oncology-report-example-12\" </p><p style=\"margin-bottom: 0px\">Profile: <a href=\"StructureDefinition-variant.html\">Variant</a></p></div><p><b>status</b>: final</p><p><b>category</b>: Laboratory <span style=\"background: LightGoldenRodYellow; margin: 4px; border: 1px solid khaki\"> (<a href=\"http://terminology.hl7.org/3.1.0/CodeSystem-observation-category.html\">Observation Category Codes</a>#laboratory)</span></p><p><b>code</b>: Genetic variant assessment <span style=\"background: LightGoldenRodYellow; margin: 4px; border: 1px solid khaki\"> (<a href=\"https://loinc.org/\">LOINC</a>#69548-6)</span></p><p><b>subject</b>: <a href=\"#Patient_Inline-Instance-for-oncology-report-example-2\">See above (urn:uuid:f7a438e6-f484-453d-97e8-aa4d51008648)</a></p><p><b>performer</b>: <a href=\"#Organization_Inline-Instance-for-oncology-report-example-1\">See above (urn:uuid:fc16d84c-8584-4e1d-baae-64e2f95bfe17)</a></p><p><b>value</b>: Present <span style=\"background: LightGoldenRodYellow; margin: 4px; border: 1px solid khaki\"> (<a href=\"https://loinc.org/\">LOINC</a>#LA9633-4)</span></p><p><b>method</b>: Sequencing <span style=\"background: LightGoldenRodYellow; margin: 4px; border: 1px solid khaki\"> (<a href=\"https://loinc.org/\">LOINC</a>#LA26398-0)</span></p><p><b>specimen</b>: <span></span></p><blockquote><p><b>component</b></p><p><b>code</b>: Genomic source class <span style=\"background: LightGoldenRodYellow; margin: 4px; border: 1px solid khaki\"> (<a href=\"https://loinc.org/\">LOINC</a>#48002-0)</span></p><p><b>value</b>: Somatic <span style=\"background: LightGoldenRodYellow; margin: 4px; border: 1px solid khaki\"> (<a href=\"https://loinc.org/\">LOINC</a>#LA6684-0)</span></p></blockquote><blockquote><p><b>component</b></p><p><b>code</b>: Gene studied [ID] <span style=\"background: LightGoldenRodYellow; margin: 4px; border: 1px solid khaki\"> (<a href=\"https://loinc.org/\">LOINC</a>#48018-6)</span></p><p><b>value</b>: RYR1 <span style=\"background: LightGoldenRodYellow; margin: 4px; border: 1px solid khaki\"> (geneId#HGNC:10483)</span></p></blockquote><blockquote><p><b>component</b></p><p><b>code</b>: Human reference sequence assembly version <span style=\"background: LightGoldenRodYellow; margin: 4px; border: 1px solid khaki\"> (<a href=\"https://loinc.org/\">LOINC</a>#62374-4)</span></p><p><b>value</b>: GRCh37 <span style=\"background: LightGoldenRodYellow; margin: 4px; border: 1px solid khaki\"> (<a href=\"https://loinc.org/\">LOINC</a>#LA14029-5)</span></p></blockquote><blockquote><p><b>component</b></p><p><b>code</b>: DNA change (c.HGVS) <span style=\"background: LightGoldenRodYellow; margin: 4px; border: 1px solid khaki\"> (<a href=\"https://loinc.org/\">LOINC</a>#48004-6)</span></p><p><b>value</b>: c.4964G&gt;A <span style=\"background: LightGoldenRodYellow; margin: 4px; border: 1px solid khaki\"> (<a href=\"http://terminology.hl7.org/3.1.0/CodeSystem-v3-hgvs.html\">Human Genome Variation Society nomenclature</a>#c.4964G&gt;A)</span></p></blockquote><blockquote><p><b>component</b></p><p><b>code</b>: DNA change type <span style=\"background: LightGoldenRodYellow; margin: 4px; border: 1px solid khaki\"> (<a href=\"https://loinc.org/\">LOINC</a>#48019-4)</span></p><p><b>value</b>: substitution <span style=\"background: LightGoldenRodYellow; margin: 4px; border: 1px solid khaki\"> (sequenceontology.org#SO:1000002)</span></p></blockquote><blockquote><p><b>component</b></p><p><b>code</b>: Amino acid change (pHGVS) <span style=\"background: LightGoldenRodYellow; margin: 4px; border: 1px solid khaki\"> (<a href=\"https://loinc.org/\">LOINC</a>#48005-3)</span></p><p><b>value</b>: p.R1655H <span style=\"background: LightGoldenRodYellow; margin: 4px; border: 1px solid khaki\"> (<a href=\"http://terminology.hl7.org/3.1.0/CodeSystem-v3-hgvs.html\">Human Genome Variation Society nomenclature</a>#p.R1655H)</span></p></blockquote><blockquote><p><b>component</b></p><p><b>code</b>: Molecular Consequence <span style=\"background: LightGoldenRodYellow; margin: 4px; border: 1px solid khaki\"> (<a href=\"CodeSystem-tbd-codes-cs.html\">To Be Determined Codes</a>#molecular-consequence)</span></p><p><b>value</b>: missense_variant <span style=\"background: LightGoldenRodYellow; margin: 4px; border: 1px solid khaki\"> (sequenceontology.org#SO:0001583)</span></p></blockquote><blockquote><p><b>component</b></p><p><b>code</b>: Transcript reference sequence [ID] <span style=\"background: LightGoldenRodYellow; margin: 4px; border: 1px solid khaki\"> (<a href=\"https://loinc.org/\">LOINC</a>#51958-7)</span></p><p><b>value</b>: NM_000540.2 <span style=\"background: LightGoldenRodYellow; margin: 4px; border: 1px solid khaki\"> (<a href=\"http://terminology.hl7.org/3.1.0/CodeSystem-v3-refSeq.html\">Gene Reference Sequence Collection</a>#NM_000540.2)</span></p></blockquote><blockquote><p><b>component</b></p><p><b>code</b>: Genomic ref allele [ID] <span style=\"background: LightGoldenRodYellow; margin: 4px; border: 1px solid khaki\"> (<a href=\"https://loinc.org/\">LOINC</a>#69547-8)</span></p><p><b>value</b>: G</p></blockquote><blockquote><p><b>component</b></p><p><b>code</b>: Sample VAF <span style=\"background: LightGoldenRodYellow; margin: 4px; border: 1px solid khaki\"> (<a href=\"https://loinc.org/\">LOINC</a>#81258-6)</span></p><p><b>value</b>: 0.2151 relative frequency of a particular allele in the specimen<span style=\"background: LightGoldenRodYellow\"> (Details: UCUM code 1 = '1')</span></p></blockquote><blockquote><p><b>component</b></p><p><b>code</b>: Allelic read depth <span style=\"background: LightGoldenRodYellow; margin: 4px; border: 1px solid khaki\"> (<a href=\"https://loinc.org/\">LOINC</a>#82121-5)</span></p><p><b>value</b>: 93 reads per base pair<span style=\"background: LightGoldenRodYellow\"> (Details: UCUM code {reads}/{base} = '{reads}/{base}')</span></p></blockquote></div>"},"status":"final","category":[{"coding":[{"system":"http://terminology.hl7.org/CodeSystem/observation-category","code":"laboratory"}]}],"code":{"coding":[{"system":"http://loinc.org","code":"69548-6","display":"Genetic variant assessment"}]},"subject":{"reference":"urn:uuid:f7a438e6-f484-453d-97e8-aa4d51008648"},"performer":[{"reference":"urn:uuid:fc16d84c-8584-4e1d-baae-64e2f95bfe17"}],"valueCodeableConcept":{"coding":[{"system":"http://loinc.org","code":"LA9633-4","display":"Present"}]},"method":{"coding":[{"system":"http://loinc.org","code":"LA26398-0","display":"Sequencing"}]},"specimen":{"identifier":{"system":"http://molit.eu/fhir/genomics/NamingSystem/cegat/tissueID","value":"UNKNOWN"}},"component":[{"code":{"coding":[{"system":"http://loinc.org","code":"48002-0","display":"Genomic source class"}]},"valueCodeableConcept":{"coding":[{"system":"http://loinc.org","code":"LA6684-0","display":"Somatic"}]}},{"code":{"coding":[{"system":"http://loinc.org","code":"48018-6","display":"Gene studied [ID]"}]},"valueCodeableConcept":{"coding":[{"system":"http://www.genenames.org/geneId","code":"HGNC:10483","display":"RYR1"}]}},{"code":{"coding":[{"system":"http://loinc.org","code":"62374-4","display":"Human reference sequence assembly version"}]},"valueCodeableConcept":{"coding":[{"system":"http://loinc.org","code":"LA14029-5","display":"GRCh37"}]}},{"code":{"coding":[{"system":"http://loinc.org","code":"48004-6","display":"DNA change (c.HGVS)"}]},"valueCodeableConcept":{"coding":[{"system":"http://varnomen.hgvs.org","code":"c.4964G>A","display":"c.4964G>A"}]}},{"code":{"coding":[{"system":"http://loinc.org","code":"48019-4","display":"DNA change type"}]},"valueCodeableConcept":{"coding":[{"system":"http://sequenceontology.org","code":"SO:1000002","display":"substitution"}]}},{"code":{"coding":[{"system":"http://loinc.org","code":"48005-3","display":"Amino acid change (pHGVS)"}]},"valueCodeableConcept":{"coding":[{"system":"http://varnomen.hgvs.org","code":"p.R1655H","display":"p.R1655H"}]}},{"code":{"coding":[{"system":"http://hl7.org/fhir/uv/genomics-reporting/CodeSystem/tbd-codes-cs","code":"molecular-consequence","display":"Molecular Consequence"}]},"valueCodeableConcept":{"coding":[{"system":"http://sequenceontology.org","code":"SO:0001583","display":"missense_variant"}]}},{"code":{"coding":[{"system":"http://loinc.org","code":"51958-7","display":"Transcript reference sequence [ID]"}]},"valueCodeableConcept":{"coding":[{"system":"http://www.ncbi.nlm.nih.gov/refseq","code":"NM_000540.2","display":"NM_000540.2"}]}},{"code":{"coding":[{"system":"http://loinc.org","code":"69547-8","display":"Genomic ref allele [ID]"}]},"valueString":"G"},{"code":{"coding":[{"system":"http://loinc.org","code":"81258-6","display":"Sample VAF"}]},"valueQuantity":{"value":0.2151,"unit":"relative frequency of a particular allele in the specimen","system":"http://unitsofmeasure.org","code":"1"}},{"code":{"coding":[{"system":"http://loinc.org","code":"82121-5","display":"Allelic read depth"}]},"valueQuantity":{"value":93,"unit":"reads per base pair","system":"http://unitsofmeasure.org","code":"{reads}/{base}"}}]},"request":{"method":"POST","url":"Observation"}},{"fullUrl":"urn:uuid:41695fc0-1fd5-4cc8-95e6-82b2848a5cb6","resource":{"resourceType":"Observation","id":"Inline-Instance-for-oncology-report-example-13","meta":{"profile":["http://hl7.org/fhir/uv/genomics-reporting/StructureDefinition/variant"]},"text":{"status":"generated","div":"<div xmlns=\"http://www.w3.org/1999/xhtml\"><p><b>Generated Narrative</b></p><div style=\"display: inline-block; background-color: #d9e0e7; padding: 6px; margin: 4px; border: 1px solid #8da1b4; border-radius: 5px; line-height: 60%\"><p style=\"margin-bottom: 0px\">Resource \"Inline-Instance-for-oncology-report-example-13\" </p><p style=\"margin-bottom: 0px\">Profile: <a href=\"StructureDefinition-variant.html\">Variant</a></p></div><p><b>status</b>: final</p><p><b>category</b>: Laboratory <span style=\"background: LightGoldenRodYellow; margin: 4px; border: 1px solid khaki\"> (<a href=\"http://terminology.hl7.org/3.1.0/CodeSystem-observation-category.html\">Observation Category Codes</a>#laboratory)</span></p><p><b>code</b>: Genetic variant assessment <span style=\"background: LightGoldenRodYellow; margin: 4px; border: 1px solid khaki\"> (<a href=\"https://loinc.org/\">LOINC</a>#69548-6)</span></p><p><b>subject</b>: <a href=\"#Patient_Inline-Instance-for-oncology-report-example-2\">See above (urn:uuid:f7a438e6-f484-453d-97e8-aa4d51008648)</a></p><p><b>performer</b>: <a href=\"#Organization_Inline-Instance-for-oncology-report-example-1\">See above (urn:uuid:fc16d84c-8584-4e1d-baae-64e2f95bfe17)</a></p><p><b>value</b>: Present <span style=\"background: LightGoldenRodYellow; margin: 4px; border: 1px solid khaki\"> (<a href=\"https://loinc.org/\">LOINC</a>#LA9633-4)</span></p><p><b>method</b>: Sequencing <span style=\"background: LightGoldenRodYellow; margin: 4px; border: 1px solid khaki\"> (<a href=\"https://loinc.org/\">LOINC</a>#LA26398-0)</span></p><p><b>specimen</b>: <span></span></p><blockquote><p><b>component</b></p><p><b>code</b>: Genomic source class <span style=\"background: LightGoldenRodYellow; margin: 4px; border: 1px solid khaki\"> (<a href=\"https://loinc.org/\">LOINC</a>#48002-0)</span></p><p><b>value</b>: Somatic <span style=\"background: LightGoldenRodYellow; margin: 4px; border: 1px solid khaki\"> (<a href=\"https://loinc.org/\">LOINC</a>#LA6684-0)</span></p></blockquote><blockquote><p><b>component</b></p><p><b>code</b>: Gene studied [ID] <span style=\"background: LightGoldenRodYellow; margin: 4px; border: 1px solid khaki\"> (<a href=\"https://loinc.org/\">LOINC</a>#48018-6)</span></p><p><b>value</b>: SACS <span style=\"background: LightGoldenRodYellow; margin: 4px; border: 1px solid khaki\"> (geneId#HGNC:10519)</span></p></blockquote><blockquote><p><b>component</b></p><p><b>code</b>: Human reference sequence assembly version <span style=\"background: LightGoldenRodYellow; margin: 4px; border: 1px solid khaki\"> (<a href=\"https://loinc.org/\">LOINC</a>#62374-4)</span></p><p><b>value</b>: GRCh37 <span style=\"background: LightGoldenRodYellow; margin: 4px; border: 1px solid khaki\"> (<a href=\"https://loinc.org/\">LOINC</a>#LA14029-5)</span></p></blockquote><blockquote><p><b>component</b></p><p><b>code</b>: DNA change (c.HGVS) <span style=\"background: LightGoldenRodYellow; margin: 4px; border: 1px solid khaki\"> (<a href=\"https://loinc.org/\">LOINC</a>#48004-6)</span></p><p><b>value</b>: c.12118G&gt;A <span style=\"background: LightGoldenRodYellow; margin: 4px; border: 1px solid khaki\"> (<a href=\"http://terminology.hl7.org/3.1.0/CodeSystem-v3-hgvs.html\">Human Genome Variation Society nomenclature</a>#c.12118G&gt;A)</span></p></blockquote><blockquote><p><b>component</b></p><p><b>code</b>: DNA change type <span style=\"background: LightGoldenRodYellow; margin: 4px; border: 1px solid khaki\"> (<a href=\"https://loinc.org/\">LOINC</a>#48019-4)</span></p><p><b>value</b>: substitution <span style=\"background: LightGoldenRodYellow; margin: 4px; border: 1px solid khaki\"> (sequenceontology.org#SO:1000002)</span></p></blockquote><blockquote><p><b>component</b></p><p><b>code</b>: Amino acid change (pHGVS) <span style=\"background: LightGoldenRodYellow; margin: 4px; border: 1px solid khaki\"> (<a href=\"https://loinc.org/\">LOINC</a>#48005-3)</span></p><p><b>value</b>: p.A4040T <span style=\"background: LightGoldenRodYellow; margin: 4px; border: 1px solid khaki\"> (<a href=\"http://terminology.hl7.org/3.1.0/CodeSystem-v3-hgvs.html\">Human Genome Variation Society nomenclature</a>#p.A4040T)</span></p></blockquote><blockquote><p><b>component</b></p><p><b>code</b>: Molecular Consequence <span style=\"background: LightGoldenRodYellow; margin: 4px; border: 1px solid khaki\"> (<a href=\"CodeSystem-tbd-codes-cs.html\">To Be Determined Codes</a>#molecular-consequence)</span></p><p><b>value</b>: missense_variant <span style=\"background: LightGoldenRodYellow; margin: 4px; border: 1px solid khaki\"> (sequenceontology.org#SO:0001583)</span></p></blockquote><blockquote><p><b>component</b></p><p><b>code</b>: Transcript reference sequence [ID] <span style=\"background: LightGoldenRodYellow; margin: 4px; border: 1px solid khaki\"> (<a href=\"https://loinc.org/\">LOINC</a>#51958-7)</span></p><p><b>value</b>: NM_014363.5 <span style=\"background: LightGoldenRodYellow; margin: 4px; border: 1px solid khaki\"> (<a href=\"http://terminology.hl7.org/3.1.0/CodeSystem-v3-refSeq.html\">Gene Reference Sequence Collection</a>#NM_014363.5)</span></p></blockquote><blockquote><p><b>component</b></p><p><b>code</b>: Genomic ref allele [ID] <span style=\"background: LightGoldenRodYellow; margin: 4px; border: 1px solid khaki\"> (<a href=\"https://loinc.org/\">LOINC</a>#69547-8)</span></p><p><b>value</b>: C</p></blockquote><blockquote><p><b>component</b></p><p><b>code</b>: Sample VAF <span style=\"background: LightGoldenRodYellow; margin: 4px; border: 1px solid khaki\"> (<a href=\"https://loinc.org/\">LOINC</a>#81258-6)</span></p><p><b>value</b>: 0.3333 relative frequency of a particular allele in the specimen<span style=\"background: LightGoldenRodYellow\"> (Details: UCUM code 1 = '1')</span></p></blockquote><blockquote><p><b>component</b></p><p><b>code</b>: Allelic read depth <span style=\"background: LightGoldenRodYellow; margin: 4px; border: 1px solid khaki\"> (<a href=\"https://loinc.org/\">LOINC</a>#82121-5)</span></p><p><b>value</b>: 60 reads per base pair<span style=\"background: LightGoldenRodYellow\"> (Details: UCUM code {reads}/{base} = '{reads}/{base}')</span></p></blockquote></div>"},"status":"final","category":[{"coding":[{"system":"http://terminology.hl7.org/CodeSystem/observation-category","code":"laboratory"}]}],"code":{"coding":[{"system":"http://loinc.org","code":"69548-6","display":"Genetic variant assessment"}]},"subject":{"reference":"urn:uuid:f7a438e6-f484-453d-97e8-aa4d51008648"},"performer":[{"reference":"urn:uuid:fc16d84c-8584-4e1d-baae-64e2f95bfe17"}],"valueCodeableConcept":{"coding":[{"system":"http://loinc.org","code":"LA9633-4","display":"Present"}]},"method":{"coding":[{"system":"http://loinc.org","code":"LA26398-0","display":"Sequencing"}]},"specimen":{"identifier":{"system":"http://molit.eu/fhir/genomics/NamingSystem/cegat/tissueID","value":"UNKNOWN"}},"component":[{"code":{"coding":[{"system":"http://loinc.org","code":"48002-0","display":"Genomic source class"}]},"valueCodeableConcept":{"coding":[{"system":"http://loinc.org","code":"LA6684-0","display":"Somatic"}]}},{"code":{"coding":[{"system":"http://loinc.org","code":"48018-6","display":"Gene studied [ID]"}]},"valueCodeableConcept":{"coding":[{"system":"http://www.genenames.org/geneId","code":"HGNC:10519","display":"SACS"}]}},{"code":{"coding":[{"system":"http://loinc.org","code":"62374-4","display":"Human reference sequence assembly version"}]},"valueCodeableConcept":{"coding":[{"system":"http://loinc.org","code":"LA14029-5","display":"GRCh37"}]}},{"code":{"coding":[{"system":"http://loinc.org","code":"48004-6","display":"DNA change (c.HGVS)"}]},"valueCodeableConcept":{"coding":[{"system":"http://varnomen.hgvs.org","code":"c.12118G>A","display":"c.12118G>A"}]}},{"code":{"coding":[{"system":"http://loinc.org","code":"48019-4","display":"DNA change type"}]},"valueCodeableConcept":{"coding":[{"system":"http://sequenceontology.org","code":"SO:1000002","display":"substitution"}]}},{"code":{"coding":[{"system":"http://loinc.org","code":"48005-3","display":"Amino acid change (pHGVS)"}]},"valueCodeableConcept":{"coding":[{"system":"http://varnomen.hgvs.org","code":"p.A4040T","display":"p.A4040T"}]}},{"code":{"coding":[{"system":"http://hl7.org/fhir/uv/genomics-reporting/CodeSystem/tbd-codes-cs","code":"molecular-consequence","display":"Molecular Consequence"}]},"valueCodeableConcept":{"coding":[{"system":"http://sequenceontology.org","code":"SO:0001583","display":"missense_variant"}]}},{"code":{"coding":[{"system":"http://loinc.org","code":"51958-7","display":"Transcript reference sequence [ID]"}]},"valueCodeableConcept":{"coding":[{"system":"http://www.ncbi.nlm.nih.gov/refseq","code":"NM_014363.5","display":"NM_014363.5"}]}},{"code":{"coding":[{"system":"http://loinc.org","code":"69547-8","display":"Genomic ref allele [ID]"}]},"valueString":"C"},{"code":{"coding":[{"system":"http://loinc.org","code":"81258-6","display":"Sample VAF"}]},"valueQuantity":{"value":0.3333,"unit":"relative frequency of a particular allele in the specimen","system":"http://unitsofmeasure.org","code":"1"}},{"code":{"coding":[{"system":"http://loinc.org","code":"82121-5","display":"Allelic read depth"}]},"valueQuantity":{"value":60,"unit":"reads per base pair","system":"http://unitsofmeasure.org","code":"{reads}/{base}"}}]},"request":{"method":"POST","url":"Observation"}},{"fullUrl":"urn:uuid:58eb14f6-4059-4168-86a9-155ae61d30e2","resource":{"resourceType":"Observation","id":"Inline-Instance-for-oncology-report-example-14","meta":{"profile":["http://hl7.org/fhir/uv/genomics-reporting/StructureDefinition/variant"]},"text":{"status":"generated","div":"<div xmlns=\"http://www.w3.org/1999/xhtml\"><p><b>Generated Narrative</b></p><div style=\"display: inline-block; background-color: #d9e0e7; padding: 6px; margin: 4px; border: 1px solid #8da1b4; border-radius: 5px; line-height: 60%\"><p style=\"margin-bottom: 0px\">Resource \"Inline-Instance-for-oncology-report-example-14\" </p><p style=\"margin-bottom: 0px\">Profile: <a href=\"StructureDefinition-variant.html\">Variant</a></p></div><p><b>status</b>: final</p><p><b>category</b>: Laboratory <span style=\"background: LightGoldenRodYellow; margin: 4px; border: 1px solid khaki\"> (<a href=\"http://terminology.hl7.org/3.1.0/CodeSystem-observation-category.html\">Observation Category Codes</a>#laboratory)</span></p><p><b>code</b>: Genetic variant assessment <span style=\"background: LightGoldenRodYellow; margin: 4px; border: 1px solid khaki\"> (<a href=\"https://loinc.org/\">LOINC</a>#69548-6)</span></p><p><b>subject</b>: <a href=\"#Patient_Inline-Instance-for-oncology-report-example-2\">See above (urn:uuid:f7a438e6-f484-453d-97e8-aa4d51008648)</a></p><p><b>performer</b>: <a href=\"#Organization_Inline-Instance-for-oncology-report-example-1\">See above (urn:uuid:fc16d84c-8584-4e1d-baae-64e2f95bfe17)</a></p><p><b>value</b>: Present <span style=\"background: LightGoldenRodYellow; margin: 4px; border: 1px solid khaki\"> (<a href=\"https://loinc.org/\">LOINC</a>#LA9633-4)</span></p><p><b>method</b>: Sequencing <span style=\"background: LightGoldenRodYellow; margin: 4px; border: 1px solid khaki\"> (<a href=\"https://loinc.org/\">LOINC</a>#LA26398-0)</span></p><p><b>specimen</b>: <span></span></p><blockquote><p><b>component</b></p><p><b>code</b>: Genomic source class <span style=\"background: LightGoldenRodYellow; margin: 4px; border: 1px solid khaki\"> (<a href=\"https://loinc.org/\">LOINC</a>#48002-0)</span></p><p><b>value</b>: Somatic <span style=\"background: LightGoldenRodYellow; margin: 4px; border: 1px solid khaki\"> (<a href=\"https://loinc.org/\">LOINC</a>#LA6684-0)</span></p></blockquote><blockquote><p><b>component</b></p><p><b>code</b>: Gene studied [ID] <span style=\"background: LightGoldenRodYellow; margin: 4px; border: 1px solid khaki\"> (<a href=\"https://loinc.org/\">LOINC</a>#48018-6)</span></p><p><b>value</b>: SLIT2 <span style=\"background: LightGoldenRodYellow; margin: 4px; border: 1px solid khaki\"> (geneId#HGNC:11086)</span></p></blockquote><blockquote><p><b>component</b></p><p><b>code</b>: Human reference sequence assembly version <span style=\"background: LightGoldenRodYellow; margin: 4px; border: 1px solid khaki\"> (<a href=\"https://loinc.org/\">LOINC</a>#62374-4)</span></p><p><b>value</b>: GRCh37 <span style=\"background: LightGoldenRodYellow; margin: 4px; border: 1px solid khaki\"> (<a href=\"https://loinc.org/\">LOINC</a>#LA14029-5)</span></p></blockquote><blockquote><p><b>component</b></p><p><b>code</b>: DNA change (c.HGVS) <span style=\"background: LightGoldenRodYellow; margin: 4px; border: 1px solid khaki\"> (<a href=\"https://loinc.org/\">LOINC</a>#48004-6)</span></p><p><b>value</b>: c.1290C&gt;A <span style=\"background: LightGoldenRodYellow; margin: 4px; border: 1px solid khaki\"> (<a href=\"http://terminology.hl7.org/3.1.0/CodeSystem-v3-hgvs.html\">Human Genome Variation Society nomenclature</a>#c.1290C&gt;A)</span></p></blockquote><blockquote><p><b>component</b></p><p><b>code</b>: DNA change type <span style=\"background: LightGoldenRodYellow; margin: 4px; border: 1px solid khaki\"> (<a href=\"https://loinc.org/\">LOINC</a>#48019-4)</span></p><p><b>value</b>: substitution <span style=\"background: LightGoldenRodYellow; margin: 4px; border: 1px solid khaki\"> (sequenceontology.org#SO:1000002)</span></p></blockquote><blockquote><p><b>component</b></p><p><b>code</b>: Amino acid change (pHGVS) <span style=\"background: LightGoldenRodYellow; margin: 4px; border: 1px solid khaki\"> (<a href=\"https://loinc.org/\">LOINC</a>#48005-3)</span></p><p><b>value</b>: p.N430K <span style=\"background: LightGoldenRodYellow; margin: 4px; border: 1px solid khaki\"> (<a href=\"http://terminology.hl7.org/3.1.0/CodeSystem-v3-hgvs.html\">Human Genome Variation Society nomenclature</a>#p.N430K)</span></p></blockquote><blockquote><p><b>component</b></p><p><b>code</b>: Molecular Consequence <span style=\"background: LightGoldenRodYellow; margin: 4px; border: 1px solid khaki\"> (<a href=\"CodeSystem-tbd-codes-cs.html\">To Be Determined Codes</a>#molecular-consequence)</span></p><p><b>value</b>: missense_variant <span style=\"background: LightGoldenRodYellow; margin: 4px; border: 1px solid khaki\"> (sequenceontology.org#SO:0001583)</span></p></blockquote><blockquote><p><b>component</b></p><p><b>code</b>: Transcript reference sequence [ID] <span style=\"background: LightGoldenRodYellow; margin: 4px; border: 1px solid khaki\"> (<a href=\"https://loinc.org/\">LOINC</a>#51958-7)</span></p><p><b>value</b>: NM_004787.3 <span style=\"background: LightGoldenRodYellow; margin: 4px; border: 1px solid khaki\"> (<a href=\"http://terminology.hl7.org/3.1.0/CodeSystem-v3-refSeq.html\">Gene Reference Sequence Collection</a>#NM_004787.3)</span></p></blockquote><blockquote><p><b>component</b></p><p><b>code</b>: Genomic ref allele [ID] <span style=\"background: LightGoldenRodYellow; margin: 4px; border: 1px solid khaki\"> (<a href=\"https://loinc.org/\">LOINC</a>#69547-8)</span></p><p><b>value</b>: C</p></blockquote><blockquote><p><b>component</b></p><p><b>code</b>: Sample VAF <span style=\"background: LightGoldenRodYellow; margin: 4px; border: 1px solid khaki\"> (<a href=\"https://loinc.org/\">LOINC</a>#81258-6)</span></p><p><b>value</b>: 0.2642 relative frequency of a particular allele in the specimen<span style=\"background: LightGoldenRodYellow\"> (Details: UCUM code 1 = '1')</span></p></blockquote><blockquote><p><b>component</b></p><p><b>code</b>: Allelic read depth <span style=\"background: LightGoldenRodYellow; margin: 4px; border: 1px solid khaki\"> (<a href=\"https://loinc.org/\">LOINC</a>#82121-5)</span></p><p><b>value</b>: 53 reads per base pair<span style=\"background: LightGoldenRodYellow\"> (Details: UCUM code {reads}/{base} = '{reads}/{base}')</span></p></blockquote></div>"},"status":"final","category":[{"coding":[{"system":"http://terminology.hl7.org/CodeSystem/observation-category","code":"laboratory"}]}],"code":{"coding":[{"system":"http://loinc.org","code":"69548-6","display":"Genetic variant assessment"}]},"subject":{"reference":"urn:uuid:f7a438e6-f484-453d-97e8-aa4d51008648"},"performer":[{"reference":"urn:uuid:fc16d84c-8584-4e1d-baae-64e2f95bfe17"}],"valueCodeableConcept":{"coding":[{"system":"http://loinc.org","code":"LA9633-4","display":"Present"}]},"method":{"coding":[{"system":"http://loinc.org","code":"LA26398-0","display":"Sequencing"}]},"specimen":{"identifier":{"system":"http://molit.eu/fhir/genomics/NamingSystem/cegat/tissueID","value":"UNKNOWN"}},"component":[{"code":{"coding":[{"system":"http://loinc.org","code":"48002-0","display":"Genomic source class"}]},"valueCodeableConcept":{"coding":[{"system":"http://loinc.org","code":"LA6684-0","display":"Somatic"}]}},{"code":{"coding":[{"system":"http://loinc.org","code":"48018-6","display":"Gene studied [ID]"}]},"valueCodeableConcept":{"coding":[{"system":"http://www.genenames.org/geneId","code":"HGNC:11086","display":"SLIT2"}]}},{"code":{"coding":[{"system":"http://loinc.org","code":"62374-4","display":"Human reference sequence assembly version"}]},"valueCodeableConcept":{"coding":[{"system":"http://loinc.org","code":"LA14029-5","display":"GRCh37"}]}},{"code":{"coding":[{"system":"http://loinc.org","code":"48004-6","display":"DNA change (c.HGVS)"}]},"valueCodeableConcept":{"coding":[{"system":"http://varnomen.hgvs.org","code":"c.1290C>A","display":"c.1290C>A"}]}},{"code":{"coding":[{"system":"http://loinc.org","code":"48019-4","display":"DNA change type"}]},"valueCodeableConcept":{"coding":[{"system":"http://sequenceontology.org","code":"SO:1000002","display":"substitution"}]}},{"code":{"coding":[{"system":"http://loinc.org","code":"48005-3","display":"Amino acid change (pHGVS)"}]},"valueCodeableConcept":{"coding":[{"system":"http://varnomen.hgvs.org","code":"p.N430K","display":"p.N430K"}]}},{"code":{"coding":[{"system":"http://hl7.org/fhir/uv/genomics-reporting/CodeSystem/tbd-codes-cs","code":"molecular-consequence","display":"Molecular Consequence"}]},"valueCodeableConcept":{"coding":[{"system":"http://sequenceontology.org","code":"SO:0001583","display":"missense_variant"}]}},{"code":{"coding":[{"system":"http://loinc.org","code":"51958-7","display":"Transcript reference sequence [ID]"}]},"valueCodeableConcept":{"coding":[{"system":"http://www.ncbi.nlm.nih.gov/refseq","code":"NM_004787.3","display":"NM_004787.3"}]}},{"code":{"coding":[{"system":"http://loinc.org","code":"69547-8","display":"Genomic ref allele [ID]"}]},"valueString":"C"},{"code":{"coding":[{"system":"http://loinc.org","code":"81258-6","display":"Sample VAF"}]},"valueQuantity":{"value":0.2642,"unit":"relative frequency of a particular allele in the specimen","system":"http://unitsofmeasure.org","code":"1"}},{"code":{"coding":[{"system":"http://loinc.org","code":"82121-5","display":"Allelic read depth"}]},"valueQuantity":{"value":53,"unit":"reads per base pair","system":"http://unitsofmeasure.org","code":"{reads}/{base}"}}]},"request":{"method":"POST","url":"Observation"}},{"fullUrl":"urn:uuid:1a71e80f-b044-4a91-80e1-eadbe5a53dca","resource":{"resourceType":"Observation","id":"Inline-Instance-for-oncology-report-example-15","meta":{"profile":["http://hl7.org/fhir/uv/genomics-reporting/StructureDefinition/variant"]},"text":{"status":"generated","div":"<div xmlns=\"http://www.w3.org/1999/xhtml\"><p><b>Generated Narrative</b></p><div style=\"display: inline-block; background-color: #d9e0e7; padding: 6px; margin: 4px; border: 1px solid #8da1b4; border-radius: 5px; line-height: 60%\"><p style=\"margin-bottom: 0px\">Resource \"Inline-Instance-for-oncology-report-example-15\" </p><p style=\"margin-bottom: 0px\">Profile: <a href=\"StructureDefinition-variant.html\">Variant</a></p></div><p><b>status</b>: final</p><p><b>category</b>: Laboratory <span style=\"background: LightGoldenRodYellow; margin: 4px; border: 1px solid khaki\"> (<a href=\"http://terminology.hl7.org/3.1.0/CodeSystem-observation-category.html\">Observation Category Codes</a>#laboratory)</span></p><p><b>code</b>: Genetic variant assessment <span style=\"background: LightGoldenRodYellow; margin: 4px; border: 1px solid khaki\"> (<a href=\"https://loinc.org/\">LOINC</a>#69548-6)</span></p><p><b>subject</b>: <a href=\"#Patient_Inline-Instance-for-oncology-report-example-2\">See above (urn:uuid:f7a438e6-f484-453d-97e8-aa4d51008648)</a></p><p><b>performer</b>: <a href=\"#Organization_Inline-Instance-for-oncology-report-example-1\">See above (urn:uuid:fc16d84c-8584-4e1d-baae-64e2f95bfe17)</a></p><p><b>value</b>: Present <span style=\"background: LightGoldenRodYellow; margin: 4px; border: 1px solid khaki\"> (<a href=\"https://loinc.org/\">LOINC</a>#LA9633-4)</span></p><p><b>method</b>: Sequencing <span style=\"background: LightGoldenRodYellow; margin: 4px; border: 1px solid khaki\"> (<a href=\"https://loinc.org/\">LOINC</a>#LA26398-0)</span></p><p><b>specimen</b>: <span></span></p><blockquote><p><b>component</b></p><p><b>code</b>: Genomic source class <span style=\"background: LightGoldenRodYellow; margin: 4px; border: 1px solid khaki\"> (<a href=\"https://loinc.org/\">LOINC</a>#48002-0)</span></p><p><b>value</b>: Somatic <span style=\"background: LightGoldenRodYellow; margin: 4px; border: 1px solid khaki\"> (<a href=\"https://loinc.org/\">LOINC</a>#LA6684-0)</span></p></blockquote><blockquote><p><b>component</b></p><p><b>code</b>: Gene studied [ID] <span style=\"background: LightGoldenRodYellow; margin: 4px; border: 1px solid khaki\"> (<a href=\"https://loinc.org/\">LOINC</a>#48018-6)</span></p><p><b>value</b>: SMARCA4 <span style=\"background: LightGoldenRodYellow; margin: 4px; border: 1px solid khaki\"> (geneId#HGNC:11100)</span></p></blockquote><blockquote><p><b>component</b></p><p><b>code</b>: Human reference sequence assembly version <span style=\"background: LightGoldenRodYellow; margin: 4px; border: 1px solid khaki\"> (<a href=\"https://loinc.org/\">LOINC</a>#62374-4)</span></p><p><b>value</b>: GRCh37 <span style=\"background: LightGoldenRodYellow; margin: 4px; border: 1px solid khaki\"> (<a href=\"https://loinc.org/\">LOINC</a>#LA14029-5)</span></p></blockquote><blockquote><p><b>component</b></p><p><b>code</b>: DNA change (c.HGVS) <span style=\"background: LightGoldenRodYellow; margin: 4px; border: 1px solid khaki\"> (<a href=\"https://loinc.org/\">LOINC</a>#48004-6)</span></p><p><b>value</b>: c.2372C&gt;T <span style=\"background: LightGoldenRodYellow; margin: 4px; border: 1px solid khaki\"> (<a href=\"http://terminology.hl7.org/3.1.0/CodeSystem-v3-hgvs.html\">Human Genome Variation Society nomenclature</a>#c.2372C&gt;T)</span></p></blockquote><blockquote><p><b>component</b></p><p><b>code</b>: DNA change type <span style=\"background: LightGoldenRodYellow; margin: 4px; border: 1px solid khaki\"> (<a href=\"https://loinc.org/\">LOINC</a>#48019-4)</span></p><p><b>value</b>: substitution <span style=\"background: LightGoldenRodYellow; margin: 4px; border: 1px solid khaki\"> (sequenceontology.org#SO:1000002)</span></p></blockquote><blockquote><p><b>component</b></p><p><b>code</b>: Amino acid change (pHGVS) <span style=\"background: LightGoldenRodYellow; margin: 4px; border: 1px solid khaki\"> (<a href=\"https://loinc.org/\">LOINC</a>#48005-3)</span></p><p><b>value</b>: p.A791V <span style=\"background: LightGoldenRodYellow; margin: 4px; border: 1px solid khaki\"> (<a href=\"http://terminology.hl7.org/3.1.0/CodeSystem-v3-hgvs.html\">Human Genome Variation Society nomenclature</a>#p.A791V)</span></p></blockquote><blockquote><p><b>component</b></p><p><b>code</b>: Molecular Consequence <span style=\"background: LightGoldenRodYellow; margin: 4px; border: 1px solid khaki\"> (<a href=\"CodeSystem-tbd-codes-cs.html\">To Be Determined Codes</a>#molecular-consequence)</span></p><p><b>value</b>: missense_variant <span style=\"background: LightGoldenRodYellow; margin: 4px; border: 1px solid khaki\"> (sequenceontology.org#SO:0001583)</span></p></blockquote><blockquote><p><b>component</b></p><p><b>code</b>: Transcript reference sequence [ID] <span style=\"background: LightGoldenRodYellow; margin: 4px; border: 1px solid khaki\"> (<a href=\"https://loinc.org/\">LOINC</a>#51958-7)</span></p><p><b>value</b>: NM_001128849.1 <span style=\"background: LightGoldenRodYellow; margin: 4px; border: 1px solid khaki\"> (<a href=\"http://terminology.hl7.org/3.1.0/CodeSystem-v3-refSeq.html\">Gene Reference Sequence Collection</a>#NM_001128849.1)</span></p></blockquote><blockquote><p><b>component</b></p><p><b>code</b>: Genomic ref allele [ID] <span style=\"background: LightGoldenRodYellow; margin: 4px; border: 1px solid khaki\"> (<a href=\"https://loinc.org/\">LOINC</a>#69547-8)</span></p><p><b>value</b>: C</p></blockquote><blockquote><p><b>component</b></p><p><b>code</b>: Sample VAF <span style=\"background: LightGoldenRodYellow; margin: 4px; border: 1px solid khaki\"> (<a href=\"https://loinc.org/\">LOINC</a>#81258-6)</span></p><p><b>value</b>: 0.1938 relative frequency of a particular allele in the specimen<span style=\"background: LightGoldenRodYellow\"> (Details: UCUM code 1 = '1')</span></p></blockquote><blockquote><p><b>component</b></p><p><b>code</b>: Allelic read depth <span style=\"background: LightGoldenRodYellow; margin: 4px; border: 1px solid khaki\"> (<a href=\"https://loinc.org/\">LOINC</a>#82121-5)</span></p><p><b>value</b>: 160 reads per base pair<span style=\"background: LightGoldenRodYellow\"> (Details: UCUM code {reads}/{base} = '{reads}/{base}')</span></p></blockquote></div>"},"status":"final","category":[{"coding":[{"system":"http://terminology.hl7.org/CodeSystem/observation-category","code":"laboratory"}]}],"code":{"coding":[{"system":"http://loinc.org","code":"69548-6","display":"Genetic variant assessment"}]},"subject":{"reference":"urn:uuid:f7a438e6-f484-453d-97e8-aa4d51008648"},"performer":[{"reference":"urn:uuid:fc16d84c-8584-4e1d-baae-64e2f95bfe17"}],"valueCodeableConcept":{"coding":[{"system":"http://loinc.org","code":"LA9633-4","display":"Present"}]},"method":{"coding":[{"system":"http://loinc.org","code":"LA26398-0","display":"Sequencing"}]},"specimen":{"identifier":{"system":"http://molit.eu/fhir/genomics/NamingSystem/cegat/tissueID","value":"UNKNOWN"}},"component":[{"code":{"coding":[{"system":"http://loinc.org","code":"48002-0","display":"Genomic source class"}]},"valueCodeableConcept":{"coding":[{"system":"http://loinc.org","code":"LA6684-0","display":"Somatic"}]}},{"code":{"coding":[{"system":"http://loinc.org","code":"48018-6","display":"Gene studied [ID]"}]},"valueCodeableConcept":{"coding":[{"system":"http://www.genenames.org/geneId","code":"HGNC:11100","display":"SMARCA4"}]}},{"code":{"coding":[{"system":"http://loinc.org","code":"62374-4","display":"Human reference sequence assembly version"}]},"valueCodeableConcept":{"coding":[{"system":"http://loinc.org","code":"LA14029-5","display":"GRCh37"}]}},{"code":{"coding":[{"system":"http://loinc.org","code":"48004-6","display":"DNA change (c.HGVS)"}]},"valueCodeableConcept":{"coding":[{"system":"http://varnomen.hgvs.org","code":"c.2372C>T","display":"c.2372C>T"}]}},{"code":{"coding":[{"system":"http://loinc.org","code":"48019-4","display":"DNA change type"}]},"valueCodeableConcept":{"coding":[{"system":"http://sequenceontology.org","code":"SO:1000002","display":"substitution"}]}},{"code":{"coding":[{"system":"http://loinc.org","code":"48005-3","display":"Amino acid change (pHGVS)"}]},"valueCodeableConcept":{"coding":[{"system":"http://varnomen.hgvs.org","code":"p.A791V","display":"p.A791V"}]}},{"code":{"coding":[{"system":"http://hl7.org/fhir/uv/genomics-reporting/CodeSystem/tbd-codes-cs","code":"molecular-consequence","display":"Molecular Consequence"}]},"valueCodeableConcept":{"coding":[{"system":"http://sequenceontology.org","code":"SO:0001583","display":"missense_variant"}]}},{"code":{"coding":[{"system":"http://loinc.org","code":"51958-7","display":"Transcript reference sequence [ID]"}]},"valueCodeableConcept":{"coding":[{"system":"http://www.ncbi.nlm.nih.gov/refseq","code":"NM_001128849.1","display":"NM_001128849.1"}]}},{"code":{"coding":[{"system":"http://loinc.org","code":"69547-8","display":"Genomic ref allele [ID]"}]},"valueString":"C"},{"code":{"coding":[{"system":"http://loinc.org","code":"81258-6","display":"Sample VAF"}]},"valueQuantity":{"value":0.1938,"unit":"relative frequency of a particular allele in the specimen","system":"http://unitsofmeasure.org","code":"1"}},{"code":{"coding":[{"system":"http://loinc.org","code":"82121-5","display":"Allelic read depth"}]},"valueQuantity":{"value":160,"unit":"reads per base pair","system":"http://unitsofmeasure.org","code":"{reads}/{base}"}}]},"request":{"method":"POST","url":"Observation"}},{"fullUrl":"urn:uuid:6a80003f-822d-489e-8286-1f1dcba56dfa","resource":{"resourceType":"DiagnosticReport","id":"Inline-Instance-for-oncology-report-example-16","text":{"status":"generated","div":"<div xmlns=\"http://www.w3.org/1999/xhtml\"><p><b>Generated Narrative</b></p><div style=\"display: inline-block; background-color: #d9e0e7; padding: 6px; margin: 4px; border: 1px solid #8da1b4; border-radius: 5px; line-height: 60%\"><p style=\"margin-bottom: 0px\">Resource \"Inline-Instance-for-oncology-report-example-16\" </p></div><p><b>identifier</b>: id: 42867</p><p><b>status</b>: final</p><p><b>category</b>: Genetics <span style=\"background: LightGoldenRodYellow; margin: 4px; border: 1px solid khaki\"> (<a href=\"http://terminology.hl7.org/3.1.0/CodeSystem-v2-0074.html\">diagnosticServiceSectionId</a>#GE)</span></p><p><b>code</b>: Master HL7 genetic variant reporting panel <span style=\"background: LightGoldenRodYellow; margin: 4px; border: 1px solid khaki\"> (<a href=\"https://loinc.org/\">LOINC</a>#81247-9)</span></p><p><b>subject</b>: <a href=\"#Patient_Inline-Instance-for-oncology-report-example-2\">See above (urn:uuid:f7a438e6-f484-453d-97e8-aa4d51008648)</a></p><p><b>issued</b>: Sep 15, 2019 3:35:05 PM</p><p><b>performer</b>: <a href=\"#Organization_Inline-Instance-for-oncology-report-example-1\">See above (urn:uuid:fc16d84c-8584-4e1d-baae-64e2f95bfe17)</a></p><p><b>specimen</b>: <a href=\"#Specimen_Inline-Instance-for-oncology-report-example-3\">See above (urn:uuid:a2041c83-b73d-4fc8-9466-4ba4a92da516)</a></p><p><b>result</b>: </p><ul><li><a href=\"#Observation_Inline-Instance-for-oncology-report-example-4\">See above (urn:uuid:dac358c3-403a-4dbb-b478-4259aed882ae)</a></li><li><a href=\"#Observation_Inline-Instance-for-oncology-report-example-5\">See above (urn:uuid:1d773d66-cec7-44a2-b92a-46d00adeae00)</a></li><li><a href=\"#Observation_Inline-Instance-for-oncology-report-example-6\">See above (urn:uuid:842d9ab9-d940-4f0c-adf9-e5c528f5c0e5)</a></li><li><a href=\"#Observation_Inline-Instance-for-oncology-report-example-7\">See above (urn:uuid:9a9f9a4a-52e3-4738-bd0b-a25374bbf358)</a></li><li><a href=\"#Observation_Inline-Instance-for-oncology-report-example-8\">See above (urn:uuid:58828523-8893-45fc-973b-16290366c5e5)</a></li><li><a href=\"#Observation_Inline-Instance-for-oncology-report-example-9\">See above (urn:uuid:2c28b23f-3e9f-4c03-8c8f-0e76bc5dc9c2)</a></li><li><a href=\"#Observation_Inline-Instance-for-oncology-report-example-10\">See above (urn:uuid:41bebbe5-e06f-4867-aa22-7c06db69dbd1)</a></li><li><a href=\"#Observation_Inline-Instance-for-oncology-report-example-11\">See above (urn:uuid:1642f190-e2c6-4999-8040-b9b2a70618bf)</a></li><li><a href=\"#Observation_Inline-Instance-for-oncology-report-example-12\">See above (urn:uuid:c3587931-242f-4129-93f9-be24500c8f29)</a></li><li><a href=\"#Observation_Inline-Instance-for-oncology-report-example-13\">See above (urn:uuid:41695fc0-1fd5-4cc8-95e6-82b2848a5cb6)</a></li><li><a href=\"#Observation_Inline-Instance-for-oncology-report-example-14\">See above (urn:uuid:58eb14f6-4059-4168-86a9-155ae61d30e2)</a></li><li><a href=\"#Observation_Inline-Instance-for-oncology-report-example-15\">See above (urn:uuid:1a71e80f-b044-4a91-80e1-eadbe5a53dca)</a></li></ul></div>"},"identifier":[{"system":"http://molit.eu/fhir/genomics/NamingSystem/cegat/reportID","value":"42867"}],"status":"final","category":[{"coding":[{"system":"http://terminology.hl7.org/CodeSystem/v2-0074","code":"GE","display":"Genetics"}]}],"code":{"coding":[{"system":"http://loinc.org","code":"81247-9","display":"Master HL7 genetic variant reporting panel"}]},"subject":{"reference":"urn:uuid:f7a438e6-f484-453d-97e8-aa4d51008648"},"issued":"2019-09-15T11:35:05.722-04:00","performer":[{"reference":"urn:uuid:fc16d84c-8584-4e1d-baae-64e2f95bfe17"}],"specimen":[{"reference":"urn:uuid:a2041c83-b73d-4fc8-9466-4ba4a92da516"}],"result":[{"reference":"urn:uuid:dac358c3-403a-4dbb-b478-4259aed882ae"},{"reference":"urn:uuid:1d773d66-cec7-44a2-b92a-46d00adeae00"},{"reference":"urn:uuid:842d9ab9-d940-4f0c-adf9-e5c528f5c0e5"},{"reference":"urn:uuid:9a9f9a4a-52e3-4738-bd0b-a25374bbf358"},{"reference":"urn:uuid:58828523-8893-45fc-973b-16290366c5e5"},{"reference":"urn:uuid:2c28b23f-3e9f-4c03-8c8f-0e76bc5dc9c2"},{"reference":"urn:uuid:41bebbe5-e06f-4867-aa22-7c06db69dbd1"},{"reference":"urn:uuid:1642f190-e2c6-4999-8040-b9b2a70618bf"},{"reference":"urn:uuid:c3587931-242f-4129-93f9-be24500c8f29"},{"reference":"urn:uuid:41695fc0-1fd5-4cc8-95e6-82b2848a5cb6"},{"reference":"urn:uuid:58eb14f6-4059-4168-86a9-155ae61d30e2"},{"reference":"urn:uuid:1a71e80f-b044-4a91-80e1-eadbe5a53dca"}]},"request":{"method":"POST","url":"DiagnosticReport"}}]}