{"resourceType":"Bundle","id":"bundle-sequence-phase-relation-CYP2C19","type":"transaction","entry":[{"fullUrl":"urn:uuid:20ac0aeb-6bd4-4e92-a891-d44a807bfe00","resource":{"resourceType":"Observation","id":"dv-5c7e9e1ca8252","meta":{"profile":["http://hl7.org/fhir/uv/genomics-reporting/StructureDefinition/variant"]},"text":{"status":"generated","div":"<div xmlns=\"http://www.w3.org/1999/xhtml\"><p><b>Generated Narrative</b></p><div style=\"display: inline-block; background-color: #d9e0e7; padding: 6px; margin: 4px; border: 1px solid #8da1b4; border-radius: 5px; line-height: 60%\"><p style=\"margin-bottom: 0px\">Resource \"dv-5c7e9e1ca8252\" </p><p style=\"margin-bottom: 0px\">Profile: <a href=\"StructureDefinition-variant.html\">Variant</a></p></div><p><b>status</b>: final</p><p><b>category</b>: Laboratory <span style=\"background: LightGoldenRodYellow; margin: 4px; border: 1px solid khaki\"> (<a href=\"http://terminology.hl7.org/3.1.0/CodeSystem-observation-category.html\">Observation Category Codes</a>#laboratory)</span></p><p><b>code</b>: Genetic variant assessment <span style=\"background: LightGoldenRodYellow; margin: 4px; border: 1px solid khaki\"> (<a href=\"https://loinc.org/\">LOINC</a>#69548-6)</span></p><p><b>issued</b>: Mar 5, 2019 4:04:44 PM</p><p><b>value</b>: Present <span style=\"background: LightGoldenRodYellow; margin: 4px; border: 1px solid khaki\"> (<a href=\"https://loinc.org/\">LOINC</a>#LA9633-4)</span></p><blockquote><p><b>component</b></p><p><b>code</b>: Human reference sequence assembly version <span style=\"background: LightGoldenRodYellow; margin: 4px; border: 1px solid khaki\"> (<a href=\"https://loinc.org/\">LOINC</a>#62374-4)</span></p><p><b>value</b>: GRCh37 <span style=\"background: LightGoldenRodYellow; margin: 4px; border: 1px solid khaki\"> (<a href=\"https://loinc.org/\">LOINC</a>#LA14029-5)</span></p></blockquote><blockquote><p><b>component</b></p><p><b>code</b>: Genomic reference sequence ID <span style=\"background: LightGoldenRodYellow; margin: 4px; border: 1px solid khaki\"> (<a href=\"https://loinc.org/\">LOINC</a>#48013-7)</span></p><p><b>value</b>: NC_000010.10 <span style=\"background: LightGoldenRodYellow; margin: 4px; border: 1px solid khaki\"> (nuccore#NC_000010.10)</span></p></blockquote><blockquote><p><b>component</b></p><p><b>code</b>: Allelic state <span style=\"background: LightGoldenRodYellow; margin: 4px; border: 1px solid khaki\"> (<a href=\"https://loinc.org/\">LOINC</a>#53034-5)</span></p><p><b>value</b>: heterozygous <span style=\"background: LightGoldenRodYellow; margin: 4px; border: 1px solid khaki\"> (<a href=\"https://loinc.org/\">LOINC</a>#LA6706-1)</span></p></blockquote><blockquote><p><b>component</b></p><p><b>code</b>: Ref nucleotide <span style=\"background: LightGoldenRodYellow; margin: 4px; border: 1px solid khaki\"> (<a href=\"https://loinc.org/\">LOINC</a>#69547-8)</span></p><p><b>value</b>: C</p></blockquote><blockquote><p><b>component</b></p><p><b>code</b>: Alt allele <span style=\"background: LightGoldenRodYellow; margin: 4px; border: 1px solid khaki\"> (<a href=\"https://loinc.org/\">LOINC</a>#69551-0)</span></p><p><b>value</b>: A</p></blockquote><blockquote><p><b>component</b></p><p><b>code</b>: Genomic coord system <span style=\"background: LightGoldenRodYellow; margin: 4px; border: 1px solid khaki\"> (<a href=\"https://loinc.org/\">LOINC</a>#92822-6)</span></p><p><b>value</b>: 1-based character counting <span style=\"background: LightGoldenRodYellow; margin: 4px; border: 1px solid khaki\"> (<a href=\"https://loinc.org/\">LOINC</a>#LA30102-0)</span></p></blockquote><blockquote><p><b>component</b></p><p><b>code</b>: Genomic allele start-end <span style=\"background: LightGoldenRodYellow; margin: 4px; border: 1px solid khaki\"> (<a href=\"https://loinc.org/\">LOINC</a>#81254-5)</span></p><p><b>value</b>: 96527334-?</p></blockquote></div>"},"status":"final","category":[{"coding":[{"system":"http://terminology.hl7.org/CodeSystem/observation-category","code":"laboratory"}]}],"code":{"coding":[{"system":"http://loinc.org","code":"69548-6","display":"Genetic variant assessment"}]},"issued":"2019-03-05T16:04:44+00:00","valueCodeableConcept":{"coding":[{"system":"http://loinc.org","code":"LA9633-4","display":"Present"}]},"component":[{"code":{"coding":[{"system":"http://loinc.org","code":"62374-4","display":"Human reference sequence assembly version"}]},"valueCodeableConcept":{"coding":[{"system":"http://loinc.org","code":"LA14029-5","display":"GRCh37"}]}},{"code":{"coding":[{"system":"http://loinc.org","code":"48013-7","display":"Genomic reference sequence ID"}]},"valueCodeableConcept":{"coding":[{"system":"http://www.ncbi.nlm.nih.gov/nuccore","code":"NC_000010.10"}]}},{"code":{"coding":[{"system":"http://loinc.org","code":"53034-5","display":"Allelic state"}]},"valueCodeableConcept":{"coding":[{"system":"http://loinc.org","code":"LA6706-1","display":"heterozygous"}]}},{"code":{"coding":[{"system":"http://loinc.org","code":"69547-8","display":"Ref nucleotide"}]},"valueString":"C"},{"code":{"coding":[{"system":"http://loinc.org","code":"69551-0","display":"Alt allele"}]},"valueString":"A"},{"code":{"coding":[{"system":"http://loinc.org","code":"92822-6","display":"Genomic coord system"}]},"valueCodeableConcept":{"coding":[{"system":"http://loinc.org","code":"LA30102-0"}]}},{"code":{"coding":[{"system":"http://loinc.org","code":"81254-5"}]},"valueRange":{"low":{"value":96527334}}}]},"request":{"method":"POST","url":"Observation"}},{"fullUrl":"urn:uuid:20ac0aeb-6bd4-4e92-a891-d44a807bfe01","resource":{"resourceType":"Observation","id":"dv-5c7e9e1ca82e4","meta":{"profile":["http://hl7.org/fhir/uv/genomics-reporting/StructureDefinition/variant"]},"text":{"status":"generated","div":"<div xmlns=\"http://www.w3.org/1999/xhtml\"><p><b>Generated Narrative</b></p><div style=\"display: inline-block; background-color: #d9e0e7; padding: 6px; margin: 4px; border: 1px solid #8da1b4; border-radius: 5px; line-height: 60%\"><p style=\"margin-bottom: 0px\">Resource \"dv-5c7e9e1ca82e4\" </p><p style=\"margin-bottom: 0px\">Profile: <a href=\"StructureDefinition-variant.html\">Variant</a></p></div><p><b>status</b>: final</p><p><b>category</b>: Laboratory <span style=\"background: LightGoldenRodYellow; margin: 4px; border: 1px solid khaki\"> (<a href=\"http://terminology.hl7.org/3.1.0/CodeSystem-observation-category.html\">Observation Category Codes</a>#laboratory)</span></p><p><b>code</b>: Genetic variant assessment <span style=\"background: LightGoldenRodYellow; margin: 4px; border: 1px solid khaki\"> (<a href=\"https://loinc.org/\">LOINC</a>#69548-6)</span></p><p><b>issued</b>: Mar 5, 2019 4:04:44 PM</p><p><b>value</b>: Present <span style=\"background: LightGoldenRodYellow; margin: 4px; border: 1px solid khaki\"> (<a href=\"https://loinc.org/\">LOINC</a>#LA9633-4)</span></p><blockquote><p><b>component</b></p><p><b>code</b>: Human reference sequence assembly version <span style=\"background: LightGoldenRodYellow; margin: 4px; border: 1px solid khaki\"> (<a href=\"https://loinc.org/\">LOINC</a>#62374-4)</span></p><p><b>value</b>: GRCh37 <span style=\"background: LightGoldenRodYellow; margin: 4px; border: 1px solid khaki\"> (<a href=\"https://loinc.org/\">LOINC</a>#LA14029-5)</span></p></blockquote><blockquote><p><b>component</b></p><p><b>code</b>: Genomic reference sequence ID <span style=\"background: LightGoldenRodYellow; margin: 4px; border: 1px solid khaki\"> (<a href=\"https://loinc.org/\">LOINC</a>#48013-7)</span></p><p><b>value</b>: NC_000010.10 <span style=\"background: LightGoldenRodYellow; margin: 4px; border: 1px solid khaki\"> (nuccore#NC_000010.10)</span></p></blockquote><blockquote><p><b>component</b></p><p><b>code</b>: Allelic state <span style=\"background: LightGoldenRodYellow; margin: 4px; border: 1px solid khaki\"> (<a href=\"https://loinc.org/\">LOINC</a>#53034-5)</span></p><p><b>value</b>: heterozygous <span style=\"background: LightGoldenRodYellow; margin: 4px; border: 1px solid khaki\"> (<a href=\"https://loinc.org/\">LOINC</a>#LA6706-1)</span></p></blockquote><blockquote><p><b>component</b></p><p><b>code</b>: Ref nucleotide <span style=\"background: LightGoldenRodYellow; margin: 4px; border: 1px solid khaki\"> (<a href=\"https://loinc.org/\">LOINC</a>#69547-8)</span></p><p><b>value</b>: C</p></blockquote><blockquote><p><b>component</b></p><p><b>code</b>: Alt allele <span style=\"background: LightGoldenRodYellow; margin: 4px; border: 1px solid khaki\"> (<a href=\"https://loinc.org/\">LOINC</a>#69551-0)</span></p><p><b>value</b>: G</p></blockquote><blockquote><p><b>component</b></p><p><b>code</b>: Genomic coord system <span style=\"background: LightGoldenRodYellow; margin: 4px; border: 1px solid khaki\"> (<a href=\"https://loinc.org/\">LOINC</a>#92822-6)</span></p><p><b>value</b>: 1-based character counting <span style=\"background: LightGoldenRodYellow; margin: 4px; border: 1px solid khaki\"> (<a href=\"https://loinc.org/\">LOINC</a>#LA30102-0)</span></p></blockquote><blockquote><p><b>component</b></p><p><b>code</b>: Genomic allele start-end <span style=\"background: LightGoldenRodYellow; margin: 4px; border: 1px solid khaki\"> (<a href=\"https://loinc.org/\">LOINC</a>#81254-5)</span></p><p><b>value</b>: 96527722-?</p></blockquote></div>"},"status":"final","category":[{"coding":[{"system":"http://terminology.hl7.org/CodeSystem/observation-category","code":"laboratory"}]}],"code":{"coding":[{"system":"http://loinc.org","code":"69548-6","display":"Genetic variant assessment"}]},"issued":"2019-03-05T16:04:44+00:00","valueCodeableConcept":{"coding":[{"system":"http://loinc.org","code":"LA9633-4","display":"Present"}]},"component":[{"code":{"coding":[{"system":"http://loinc.org","code":"62374-4","display":"Human reference sequence assembly version"}]},"valueCodeableConcept":{"coding":[{"system":"http://loinc.org","code":"LA14029-5","display":"GRCh37"}]}},{"code":{"coding":[{"system":"http://loinc.org","code":"48013-7","display":"Genomic reference sequence ID"}]},"valueCodeableConcept":{"coding":[{"system":"http://www.ncbi.nlm.nih.gov/nuccore","code":"NC_000010.10"}]}},{"code":{"coding":[{"system":"http://loinc.org","code":"53034-5","display":"Allelic state"}]},"valueCodeableConcept":{"coding":[{"system":"http://loinc.org","code":"LA6706-1","display":"heterozygous"}]}},{"code":{"coding":[{"system":"http://loinc.org","code":"69547-8","display":"Ref nucleotide"}]},"valueString":"C"},{"code":{"coding":[{"system":"http://loinc.org","code":"69551-0","display":"Alt allele"}]},"valueString":"G"},{"code":{"coding":[{"system":"http://loinc.org","code":"92822-6","display":"Genomic coord system"}]},"valueCodeableConcept":{"coding":[{"system":"http://loinc.org","code":"LA30102-0"}]}},{"code":{"coding":[{"system":"http://loinc.org","code":"81254-5"}]},"valueRange":{"low":{"value":96527722}}}]},"request":{"method":"POST","url":"Observation"}},{"fullUrl":"urn:uuid:20ac0aeb-6bd4-4e92-a891-d44a807bfe02","resource":{"resourceType":"Observation","id":"sid-5c7e9e1ca8a29","meta":{"profile":["http://hl7.org/fhir/uv/genomics-reporting/StructureDefinition/sequence-phase-relationship"]},"text":{"status":"generated","div":"<div xmlns=\"http://www.w3.org/1999/xhtml\"><p><b>Generated Narrative</b></p><div style=\"display: inline-block; background-color: #d9e0e7; padding: 6px; margin: 4px; border: 1px solid #8da1b4; border-radius: 5px; line-height: 60%\"><p style=\"margin-bottom: 0px\">Resource \"sid-5c7e9e1ca8a29\" </p><p style=\"margin-bottom: 0px\">Profile: <a href=\"StructureDefinition-sequence-phase-relationship.html\">Sequence Phase Relationship</a></p></div><p><b>status</b>: final</p><p><b>category</b>: Laboratory <span style=\"background: LightGoldenRodYellow; margin: 4px; border: 1px solid khaki\"> (<a href=\"http://terminology.hl7.org/3.1.0/CodeSystem-observation-category.html\">Observation Category Codes</a>#laboratory)</span></p><p><b>code</b>: Allelic phase <span style=\"background: LightGoldenRodYellow; margin: 4px; border: 1px solid khaki\"> (<a href=\"https://loinc.org/\">LOINC</a>#82120-7)</span></p><p><b>issued</b>: Mar 5, 2019 4:04:44 PM</p><p><b>value</b>: Cis <span style=\"background: LightGoldenRodYellow; margin: 4px; border: 1px solid khaki\"> (<a href=\"CodeSystem-sequence-phase-relationship-cs.html\">Sequence Phase Relationship Codes</a>#Cis)</span></p><p><b>derivedFrom</b>: </p><ul><li><a href=\"#Observation_dv-5c7e9e1ca8252\">See above (Observation/dv-5c7e9e1ca8252)</a></li><li><a href=\"#Observation_dv-5c7e9e1ca82e4\">See above (Observation/dv-5c7e9e1ca82e4)</a></li></ul></div>"},"status":"final","category":[{"coding":[{"system":"http://terminology.hl7.org/CodeSystem/observation-category","code":"laboratory"}]}],"code":{"coding":[{"system":"http://loinc.org","code":"82120-7","display":"Allelic phase"}]},"issued":"2019-03-05T16:04:44+00:00","valueCodeableConcept":{"coding":[{"system":"http://hl7.org/fhir/uv/genomics-reporting/CodeSystem/sequence-phase-relationship-cs","code":"Cis","display":"Cis"}]},"derivedFrom":[{"reference":"Observation/dv-5c7e9e1ca8252"},{"reference":"Observation/dv-5c7e9e1ca82e4"}]},"request":{"method":"POST","url":"Observation"}},{"fullUrl":"urn:uuid:20ac0aeb-6bd4-4e92-a891-d44a807bfe03","resource":{"resourceType":"DiagnosticReport","id":"sequence-phase-relation-CYP2C19","meta":{"profile":["http://hl7.org/fhir/uv/genomics-reporting/StructureDefinition/genomics-report"]},"text":{"status":"generated","div":"<div xmlns=\"http://www.w3.org/1999/xhtml\"><p><b>Generated Narrative</b></p><div style=\"display: inline-block; background-color: #d9e0e7; padding: 6px; margin: 4px; border: 1px solid #8da1b4; border-radius: 5px; line-height: 60%\"><p style=\"margin-bottom: 0px\">Resource \"sequence-phase-relation-CYP2C19\" </p><p style=\"margin-bottom: 0px\">Profile: <a href=\"StructureDefinition-genomics-report.html\">Genomics Report</a></p></div><p><b>status</b>: final</p><p><b>category</b>: Genetics <span style=\"background: LightGoldenRodYellow; margin: 4px; border: 1px solid khaki\"> (<a href=\"http://terminology.hl7.org/3.1.0/CodeSystem-v2-0074.html\">diagnosticServiceSectionId</a>#GE)</span></p><p><b>code</b>: Genetic analysis report <span style=\"background: LightGoldenRodYellow; margin: 4px; border: 1px solid khaki\"> (<a href=\"https://loinc.org/\">LOINC</a>#81254-5)</span></p><p><b>result</b>: </p><ul><li><a href=\"#Observation_dv-5c7e9e1ca8252\">See above (Observation/dv-5c7e9e1ca8252)</a></li><li><a href=\"#Observation_dv-5c7e9e1ca82e4\">See above (Observation/dv-5c7e9e1ca82e4)</a></li><li><a href=\"#Observation_sid-5c7e9e1ca8a29\">See above (Observation/sid-5c7e9e1ca8a29)</a></li></ul></div>"},"status":"final","category":[{"coding":[{"system":"http://terminology.hl7.org/CodeSystem/v2-0074","code":"GE"}]}],"code":{"coding":[{"system":"http://loinc.org","code":"81254-5"}],"text":"Genetic analysis report"},"result":[{"reference":"Observation/dv-5c7e9e1ca8252"},{"reference":"Observation/dv-5c7e9e1ca82e4"},{"reference":"Observation/sid-5c7e9e1ca8a29"}]},"request":{"method":"POST","url":"DiagnosticReport"}}]}