{"resourceType":"Bundle","id":"bundle-complexVariant-nonHGVS","type":"transaction","entry":[{"fullUrl":"urn:uuid:16fdd5fc-e665-48af-99e4-48d603f3e12d","resource":{"resourceType":"Observation","id":"Inline-Instance-for-complexVariant-nonHGVS-1","meta":{"profile":["http://hl7.org/fhir/uv/genomics-reporting/StructureDefinition/variant"]},"text":{"status":"generated","div":"<div xmlns=\"http://www.w3.org/1999/xhtml\"><p><b>Generated Narrative</b></p><div style=\"display: inline-block; background-color: #d9e0e7; padding: 6px; margin: 4px; border: 1px solid #8da1b4; border-radius: 5px; line-height: 60%\"><p style=\"margin-bottom: 0px\">Resource \"Inline-Instance-for-complexVariant-nonHGVS-1\" </p><p style=\"margin-bottom: 0px\">Profile: <a href=\"StructureDefinition-variant.html\">Variant</a></p></div><p><b>status</b>: final</p><p><b>category</b>: Laboratory <span style=\"background: LightGoldenRodYellow; margin: 4px; border: 1px solid khaki\"> (<a href=\"http://terminology.hl7.org/3.1.0/CodeSystem-observation-category.html\">Observation Category Codes</a>#laboratory)</span></p><p><b>code</b>: Genetic variant assessment <span style=\"background: LightGoldenRodYellow; margin: 4px; border: 1px solid khaki\"> (<a href=\"https://loinc.org/\">LOINC</a>#69548-6)</span></p><p><b>value</b>: Present <span style=\"background: LightGoldenRodYellow; margin: 4px; border: 1px solid khaki\"> (<a href=\"https://loinc.org/\">LOINC</a>#LA9633-4)</span></p><blockquote><p><b>component</b></p><p><b>code</b>: Transcript ref sequence ID <span style=\"background: LightGoldenRodYellow; margin: 4px; border: 1px solid khaki\"> (<a href=\"https://loinc.org/\">LOINC</a>#51958-7)</span></p><p><b>value</b>: NM_022787.3 <span style=\"background: LightGoldenRodYellow; margin: 4px; border: 1px solid khaki\"> (<a href=\"http://terminology.hl7.org/3.1.0/CodeSystem-v3-refSeq.html\">Gene Reference Sequence Collection</a>#NM_022787.3)</span></p></blockquote><blockquote><p><b>component</b></p><p><b>code</b>: Genomic allele start-end <span style=\"background: LightGoldenRodYellow; margin: 4px; border: 1px solid khaki\"> (<a href=\"https://loinc.org/\">LOINC</a>#81254-5)</span></p><p><b>value</b>: 769-769</p></blockquote><blockquote><p><b>component</b></p><p><b>code</b>: Genomic ref allele [ID] <span style=\"background: LightGoldenRodYellow; margin: 4px; border: 1px solid khaki\"> (<a href=\"https://loinc.org/\">LOINC</a>#69547-8)</span></p><p><b>value</b>: G</p></blockquote><blockquote><p><b>component</b></p><p><b>code</b>: Genomic alt allele [ID] <span style=\"background: LightGoldenRodYellow; margin: 4px; border: 1px solid khaki\"> (<a href=\"https://loinc.org/\">LOINC</a>#69551-0)</span></p><p><b>value</b>: A</p></blockquote><blockquote><p><b>component</b></p><p><b>code</b>: Allelic state <span style=\"background: LightGoldenRodYellow; margin: 4px; border: 1px solid khaki\"> (<a href=\"https://loinc.org/\">LOINC</a>#53034-5)</span></p><p><b>value</b>: Heterozygous <span style=\"background: LightGoldenRodYellow; margin: 4px; border: 1px solid khaki\"> (<a href=\"https://loinc.org/\">LOINC</a>#LA6706-1)</span></p></blockquote></div>"},"status":"final","category":[{"coding":[{"system":"http://terminology.hl7.org/CodeSystem/observation-category","code":"laboratory"}]}],"code":{"coding":[{"system":"http://loinc.org","code":"69548-6","display":"Genetic variant assessment"}]},"valueCodeableConcept":{"coding":[{"system":"http://loinc.org","code":"LA9633-4","display":"Present"}]},"component":[{"code":{"coding":[{"system":"http://loinc.org","code":"51958-7","display":"Transcript ref sequence ID"}]},"valueCodeableConcept":{"coding":[{"system":"http://www.ncbi.nlm.nih.gov/refseq","code":"NM_022787.3","display":"NM_022787.3"}]}},{"code":{"coding":[{"system":"http://loinc.org","code":"81254-5"}]},"valueRange":{"low":{"value":769},"high":{"value":769}}},{"code":{"coding":[{"system":"http://loinc.org","code":"69547-8","display":"Genomic ref allele [ID]"}]},"valueString":"G"},{"code":{"coding":[{"system":"http://loinc.org","code":"69551-0","display":"Genomic alt allele [ID]"}]},"valueString":"A"},{"code":{"coding":[{"system":"http://loinc.org","code":"53034-5","display":"Allelic state"}]},"valueCodeableConcept":{"coding":[{"system":"http://loinc.org","code":"LA6706-1","display":"Heterozygous"}]}}]},"request":{"method":"POST","url":"Observation"}},{"fullUrl":"urn:uuid:16fdd5fc-e665-48af-99e4-48d603f3e12e","resource":{"resourceType":"Observation","id":"Inline-Instance-for-complexVariant-nonHGVS-2","meta":{"profile":["http://hl7.org/fhir/uv/genomics-reporting/StructureDefinition/variant"]},"text":{"status":"generated","div":"<div xmlns=\"http://www.w3.org/1999/xhtml\"><p><b>Generated Narrative</b></p><div style=\"display: inline-block; background-color: #d9e0e7; padding: 6px; margin: 4px; border: 1px solid #8da1b4; border-radius: 5px; line-height: 60%\"><p style=\"margin-bottom: 0px\">Resource \"Inline-Instance-for-complexVariant-nonHGVS-2\" </p><p style=\"margin-bottom: 0px\">Profile: <a href=\"StructureDefinition-variant.html\">Variant</a></p></div><p><b>status</b>: final</p><p><b>category</b>: Laboratory <span style=\"background: LightGoldenRodYellow; margin: 4px; border: 1px solid khaki\"> (<a href=\"http://terminology.hl7.org/3.1.0/CodeSystem-observation-category.html\">Observation Category Codes</a>#laboratory)</span></p><p><b>code</b>: Genetic variant assessment <span style=\"background: LightGoldenRodYellow; margin: 4px; border: 1px solid khaki\"> (<a href=\"https://loinc.org/\">LOINC</a>#69548-6)</span></p><p><b>value</b>: Present <span style=\"background: LightGoldenRodYellow; margin: 4px; border: 1px solid khaki\"> (<a href=\"https://loinc.org/\">LOINC</a>#LA9633-4)</span></p><blockquote><p><b>component</b></p><p><b>code</b>: Transcript ref sequence ID <span style=\"background: LightGoldenRodYellow; margin: 4px; border: 1px solid khaki\"> (<a href=\"https://loinc.org/\">LOINC</a>#51958-7)</span></p><p><b>value</b>: NM_022787.3 <span style=\"background: LightGoldenRodYellow; margin: 4px; border: 1px solid khaki\"> (<a href=\"http://terminology.hl7.org/3.1.0/CodeSystem-v3-refSeq.html\">Gene Reference Sequence Collection</a>#NM_022787.3)</span></p></blockquote><blockquote><p><b>component</b></p><p><b>code</b>: Genomic allele start-end <span style=\"background: LightGoldenRodYellow; margin: 4px; border: 1px solid khaki\"> (<a href=\"https://loinc.org/\">LOINC</a>#81254-5)</span></p><p><b>value</b>: 53-53</p></blockquote><blockquote><p><b>component</b></p><p><b>code</b>: Genomic ref allele [ID] <span style=\"background: LightGoldenRodYellow; margin: 4px; border: 1px solid khaki\"> (<a href=\"https://loinc.org/\">LOINC</a>#69547-8)</span></p><p><b>value</b>: A</p></blockquote><blockquote><p><b>component</b></p><p><b>code</b>: Genomic alt allele [ID] <span style=\"background: LightGoldenRodYellow; margin: 4px; border: 1px solid khaki\"> (<a href=\"https://loinc.org/\">LOINC</a>#69551-0)</span></p><p><b>value</b>: G</p></blockquote><blockquote><p><b>component</b></p><p><b>code</b>: Allelic state <span style=\"background: LightGoldenRodYellow; margin: 4px; border: 1px solid khaki\"> (<a href=\"https://loinc.org/\">LOINC</a>#53034-5)</span></p><p><b>value</b>: Heterozygous <span style=\"background: LightGoldenRodYellow; margin: 4px; border: 1px solid khaki\"> (<a href=\"https://loinc.org/\">LOINC</a>#LA6706-1)</span></p></blockquote></div>"},"status":"final","category":[{"coding":[{"system":"http://terminology.hl7.org/CodeSystem/observation-category","code":"laboratory"}]}],"code":{"coding":[{"system":"http://loinc.org","code":"69548-6","display":"Genetic variant assessment"}]},"valueCodeableConcept":{"coding":[{"system":"http://loinc.org","code":"LA9633-4","display":"Present"}]},"component":[{"code":{"coding":[{"system":"http://loinc.org","code":"51958-7","display":"Transcript ref sequence ID"}]},"valueCodeableConcept":{"coding":[{"system":"http://www.ncbi.nlm.nih.gov/refseq","code":"NM_022787.3","display":"NM_022787.3"}]}},{"code":{"coding":[{"system":"http://loinc.org","code":"81254-5"}]},"valueRange":{"low":{"value":53},"high":{"value":53}}},{"code":{"coding":[{"system":"http://loinc.org","code":"69547-8","display":"Genomic ref allele [ID]"}]},"valueString":"A"},{"code":{"coding":[{"system":"http://loinc.org","code":"69551-0","display":"Genomic alt allele [ID]"}]},"valueString":"G"},{"code":{"coding":[{"system":"http://loinc.org","code":"53034-5","display":"Allelic state"}]},"valueCodeableConcept":{"coding":[{"system":"http://loinc.org","code":"LA6706-1","display":"Heterozygous"}]}}]},"request":{"method":"POST","url":"Observation"}},{"fullUrl":"urn:uuid:16fdd5fc-e665-48af-99e4-48d603f3e12a","resource":{"resourceType":"Observation","id":"Inline-Instance-for-complexVariant-nonHGVS-3","meta":{"profile":["http://hl7.org/fhir/uv/genomics-reporting/StructureDefinition/genotype"]},"text":{"status":"generated","div":"<div xmlns=\"http://www.w3.org/1999/xhtml\"><p><b>Generated Narrative</b></p><div style=\"display: inline-block; background-color: #d9e0e7; padding: 6px; margin: 4px; border: 1px solid #8da1b4; border-radius: 5px; line-height: 60%\"><p style=\"margin-bottom: 0px\">Resource \"Inline-Instance-for-complexVariant-nonHGVS-3\" </p><p style=\"margin-bottom: 0px\">Profile: <a href=\"StructureDefinition-genotype.html\">Genotype</a></p></div><p><b>status</b>: final</p><p><b>category</b>: Laboratory <span style=\"background: LightGoldenRodYellow; margin: 4px; border: 1px solid khaki\"> (<a href=\"http://terminology.hl7.org/3.1.0/CodeSystem-observation-category.html\">Observation Category Codes</a>#laboratory)</span></p><p><b>code</b>: Genotype display name <span style=\"background: LightGoldenRodYellow; margin: 4px; border: 1px solid khaki\"> (<a href=\"https://loinc.org/\">LOINC</a>#84413-4)</span></p><p><b>value</b>: NM_022787.3(NMNAT1):c.[53A&gt;G];[769G&gt;A] AND Cone-rod dystrophy <span style=\"background: LightGoldenRodYellow; margin: 4px; border: 1px solid khaki\"> (clinvar#RCV000664188.1)</span></p><p><b>hasMember</b>: </p><ul><li><a href=\"#Observation_Inline-Instance-for-complexVariant-nonHGVS-2\">See above (urn:uuid:16fdd5fc-e665-48af-99e4-48d603f3e12e: unpacked representation of NM_022787.3:c.53A&gt;G)</a></li><li><a href=\"#Observation_Inline-Instance-for-complexVariant-nonHGVS-1\">See above (urn:uuid:16fdd5fc-e665-48af-99e4-48d603f3e12d: unpacked representation of NM_022787.3:c.769G&gt;A)</a></li></ul></div>"},"status":"final","category":[{"coding":[{"system":"http://terminology.hl7.org/CodeSystem/observation-category","code":"laboratory"}]}],"code":{"coding":[{"system":"http://loinc.org","code":"84413-4"}]},"valueCodeableConcept":{"coding":[{"system":"http://www.ncbi.nlm.nih.gov/clinvar","code":"RCV000664188.1","display":"NM_022787.3(NMNAT1):c.[53A>G];[769G>A] AND Cone-rod dystrophy"}]},"hasMember":[{"reference":"urn:uuid:16fdd5fc-e665-48af-99e4-48d603f3e12e","display":"unpacked representation of NM_022787.3:c.53A>G"},{"reference":"urn:uuid:16fdd5fc-e665-48af-99e4-48d603f3e12d","display":"unpacked representation of NM_022787.3:c.769G>A"}]},"request":{"method":"POST","url":"Observation"}}]}